"time","Acceleration x","Acceleration y","Acceleration z","abs Acceleration"
2.106446251E-1,-1.349743195E0,3.926185455E0,1.145148651E1,1.218085720E1
4.110506251E-1,7.602690125E-1,3.791465607E0,1.052805679E1,1.121575678E1
6.114566252E-1,-3.885919189E-1,3.432362366E0,6.503076782E0,7.363567255E0
8.118616249E-1,2.103276215E0,3.047812042E0,1.292412415E1,1.344417770E1
1.012267625E0,1.601519623E0,6.024971008E-1,7.314988403E0,7.512451211E0
1.212673500E0,2.299518127E0,1.886077881E0,8.380622406E0,8.892688306E0
1.413078500E0,9.190887451E-2,3.121309204E0,9.185648346E0,9.701914962E0
1.613484500E0,-9.928852844E-1,2.339185638E0,9.361981659E0,9.700737664E0
1.813890500E0,-3.549119568E0,2.622546387E-1,6.626719666E0,7.521864179E0
2.014295500E0,1.255588989E0,6.004912720E0,1.460153595E1,1.583793966E1
2.214701334E0,-1.066681824E0,3.025658112E0,8.976233826E0,9.532323474E0
2.415107334E0,8.283773804E-1,1.297801208E0,8.693471832E0,8.828756966E0
2.615513334E0,-2.012415161E0,1.894909515E0,1.277233978E1,1.306802052E1
2.815918333E0,-2.205363922E0,1.334474945E0,8.014483795E0,8.418812500E0
3.016324333E0,-5.631289673E-1,3.097508698E0,6.088289337E0,6.854118573E0
3.216729959E0,-1.307081909E0,1.765578461E0,1.184636536E1,1.204832364E1
3.417135959E0,-9.809101868E-1,-5.987548828E-3,6.467151489E0,6.541121389E0
3.617541959E0,-7.737409973E-1,3.654201050E0,9.794582062E0,1.048263794E1
3.817947959E0,-4.302951965E0,-7.990383911E-1,1.344878311E1,1.414297087E1
4.018353959E0,-2.048190765E0,3.351530457E-1,7.677534485E0,7.953109376E0
4.218760708E0,-1.431173859E0,2.928510132E0,9.024433594E0,9.595042048E0
4.419166708E0,-3.392096100E0,-1.493144989E0,1.545281570E1,1.589104500E1
4.619572708E0,-1.775158539E0,9.419911194E-1,5.453010406E0,5.811527992E0
4.819978708E0,-3.152294769E0,2.923420715E0,1.230546066E1,1.303486529E1
5.020384708E0,-6.103407898E0,-1.574575653E0,1.109328140E1,1.275898776E1
5.220790708E0,-2.732118530E0,1.338067474E0,3.869154053E0,4.921915208E0
5.421196708E0,-5.895939331E0,8.918453979E-1,1.297501831E1,1.427965647E1
5.621603708E0,-3.065924377E0,-8.879534912E-1,8.599766693E0,9.173022450E0
5.822009708E0,-2.828218689E0,1.099164276E0,6.295009460E0,6.988141897E0
6.022415708E0,-3.137026520E0,1.767374725E0,8.418044586E0,9.155764494E0
6.222821209E0,-6.647227020E0,2.141746216E0,3.371588745E0,7.755018670E0
6.423228208E0,-2.419119415E0,3.712879028E0,4.255949707E0,6.144161239E0
6.623634208E0,-6.992409210E0,4.612208862E0,7.535779266E0,1.126739661E1
6.824040208E0,-4.024530945E0,3.965254211E0,6.384373627E0,8.525275180E0
7.024446208E0,-2.033371582E0,1.276096344E0,7.309749298E0,7.693858373E0
7.224852209E0,-4.447102203E0,3.599414978E0,6.862030334E0,8.934202063E0
7.425259208E0,-2.663860474E0,1.933379517E0,7.191794586E0,7.909236268E0
7.625665208E0,-1.846110992E0,2.558479614E0,6.502927094E0,7.227863067E0
7.826071208E0,-6.620432739E0,4.065096588E0,1.227327759E1,1.452544260E1
8.026477208E0,-6.274651794E0,3.629951477E0,5.334157562E0,9.000057765E0
8.226885125E0,-6.235882416E0,4.355792084E0,6.597230988E0,1.006889323E1
8.427291125E0,-1.578003525E1,8.377329254E0,7.771838379E0,1.948308573E1
8.627697125E0,9.361532593E-1,1.166524200E0,5.849535828E0,6.037733932E0
8.828103125E0,2.465822296E0,1.484762421E0,1.107756409E1,1.144540192E1
9.028510125E0,2.195334778E0,-1.498384094E0,1.024813889E1,1.058720928E1
9.228915459E0,8.554710388E-1,2.092648315E-1,4.357288971E0,4.445400954E0
9.429321459E0,-5.532046051E0,-1.760339355E0,1.744592102E1,1.838647569E1
9.629728458E0,3.286116486E0,-7.954458618E-1,1.060155396E1,1.112763416E1
9.830134458E0,5.496569824E-1,6.285429382E-1,4.098477173E0,4.182667111E0
1.003054146E1,4.120032349E0,1.287023621E0,1.237162308E1,1.310298263E1
1.023094696E1,4.252506866E0,-2.057471466E0,9.308991852E0,1.043907720E1
1.043135296E1,-1.559756470E0,6.379882965E0,8.397986298E0,1.066123449E1
1.063175996E1,9.704319763E-1,3.638483734E0,1.817116287E1,1.855724824E1
1.083216596E1,2.386786652E0,1.527872772E0,6.792125702E0,7.359627523E0
1.103257296E1,2.143542480E-1,4.223766632E0,5.854325867E0,7.222138441E0
1.123297946E1,8.083190918E-2,3.924389191E0,1.327020447E1,1.383855812E1
1.143338546E1,-1.242416382E-2,4.998106384E-1,7.768694916E0,7.784766260E0
1.163379246E1,-2.108964386E0,1.958527222E0,9.985135803E0,1.039165515E1
1.183419846E1,-1.722168732E0,3.941453705E0,1.135718262E1,1.214440280E1
1.203460546E1,3.725752258E-1,2.088007965E0,5.040917358E0,5.468952128E0
1.223501271E1,2.993774414E-1,4.896018677E0,1.125225082E1,1.227492462E1
1.243541871E1,-1.330732727E-1,9.478289795E-1,1.085692291E1,1.089903039E1
1.263582571E1,-6.860234070E-1,2.928061066E0,5.382207642E0,6.165413921E0
1.283623271E1,-1.547332306E0,3.264112244E0,1.342153976E1,1.389915090E1
1.303663971E1,-1.771566010E0,1.392554169E0,6.337521057E0,6.726204456E0
1.323704696E1,6.114784241E-1,3.845952301E0,5.810766449E0,6.995016918E0
1.343745396E1,2.044747925E-1,4.081562347E0,1.167811523E1,1.237252345E1
1.363786096E1,-5.409750366E-1,1.813927917E0,6.826105042E0,7.083692435E0
1.383826896E1,-1.205592957E0,4.090244293E0,1.103984253E1,1.183476556E1
1.403867596E1,-2.844235382E0,2.254312134E0,1.058404037E1,1.118899052E1
1.423908400E1,2.462379456E-1,1.765129395E0,7.083569641E0,7.304332534E0
1.443949100E1,-1.868414612E0,3.544329529E0,1.374082581E1,1.431305484E1
1.463989900E1,7.436535645E-1,2.368524628E0,6.675518188E0,7.122181732E0
1.484030700E1,-6.152206421E-1,3.893852692E0,5.616320801E0,6.861752295E0
1.504071500E1,-2.655328217E0,4.663252716E0,1.072669373E1,1.199410906E1
1.524112196E1,-3.867956543E-1,1.019679565E0,7.505242767E0,7.584063969E0
1.544152996E1,-9.418414307E-1,3.578608246E0,1.183723434E1,1.240216188E1
1.564193796E1,-7.506889343E-1,-1.347048798E0,1.122231308E1,1.132777053E1
1.584234596E1,-6.750961304E-1,2.692900085E0,6.650220795E0,7.206448659E0
1.604275396E1,-6.101312256E-1,3.330574036E0,1.234183502E1,1.279788558E1
1.624316246E1,-1.135688324E0,1.554966431E0,6.702162781E0,6.973284342E0
1.644357046E1,-7.792794800E-1,4.371808777E0,7.339387665E0,8.578263215E0
1.664397846E1,5.245092773E-1,2.647694092E0,1.201356766E1,1.231305006E1
1.684438646E1,2.502795410E-1,2.011067963E0,6.187233582E0,6.510675356E0
1.704479446E1,-6.224057007E-1,3.331472168E0,1.361493759E1,1.403041772E1
1.724520283E1,-2.381248169E0,-5.468128967E-1,1.087548431E1,1.114654683E1
1.744561083E1,-5.351371765E-1,2.827769623E0,4.150868225E0,5.050976129E0
1.764601883E1,-1.455573120E0,1.948947144E0,1.818403610E1,1.834601475E1
1.784642683E1,-4.409829712E-1,2.051034851E0,5.114115143E0,5.527692433E0
1.804683483E1,-7.972421265E-1,2.986739044E0,6.196663971E0,6.924944007E0
1.824724296E1,-1.235830078E0,4.726870422E0,1.374247238E1,1.458513377E1
1.844765096E1,-2.544708252E-1,5.963598633E-1,6.870861969E0,6.901387157E0
1.864805996E1,-1.140478363E0,4.178111572E0,9.585616608E0,1.051861935E1
1.884846796E1,-1.602417755E0,-1.691931610E0,1.437565567E1,1.456330495E1
1.904887596E1,-4.076023865E-1,2.636916504E0,5.229076080E0,5.870494443E0
1.924928412E1,-1.854792938E0,4.094585266E0,1.260828094E1,1.338561294E1
1.944969212E1,-2.622845764E0,1.594633942E0,7.223528595E0,7.848665025E0
1.965010012E1,-5.987548828E-3,3.453618164E0,5.075046387E0,6.138697753E0
1.985050813E1,-2.312990112E0,4.555626526E0,1.698952011E1,1.774112313E1
2.005091613E1,-9.184899902E-1,1.319057007E0,5.443280640E0,5.675635592E0
2.025132296E1,-3.895050201E0,3.178939362E0,7.657326508E0,9.160334098E0
2.045173096E1,-2.920576630E0,4.921765137E-1,1.404604111E1,1.435490426E1
2.065213896E1,-5.197192383E-1,9.455836487E-1,6.728358307E0,6.814326234E0
2.085254696E1,-7.903564453E-1,2.392175446E0,1.757510239E1,1.775475684E1
2.105295496E1,-4.635859680E-1,1.451980591E0,6.477030945E0,6.653952919E0
2.125336308E1,-1.428479462E0,2.634970551E0,4.629273376E0,5.514870385E0
2.145377008E1,-3.123255157E0,4.331991577E0,1.420111862E1,1.517210084E1
2.165417808E1,-1.666634216E0,3.022215271E-1,6.764882355E0,6.973710686E0
2.185458608E1,-1.553319855E0,3.910019073E0,9.448052673E0,1.034247316E1
2.205499308E1,4.411326599E-1,2.194736023E0,1.052416489E1,1.075962410E1
2.225540133E1,-9.286688232E-1,1.854044495E0,7.231611786E0,7.523039000E0
2.245580833E1,-6.676116943E-1,4.211941223E0,1.304522232E1,1.372457575E1
2.265621633E1,-2.694846039E0,1.094523926E0,1.006851242E1,1.048022520E1
2.285662333E1,-2.737806702E-1,2.229014740E0,4.720134430E0,5.227153298E0
2.305703133E1,-4.578977966E-1,4.605472870E0,1.373947861E1,1.449804549E1
2.325743783E1,-4.228706360E-1,3.161874847E0,4.516707458E0,5.529639987E0
2.345784583E1,-6.426136780E-1,4.039499817E0,9.842183075E0,1.065828686E1
2.365825283E1,-1.046324158E-1,2.627935181E0,1.597013992E1,1.618525132E1
2.385865983E1,-8.559201050E-1,2.422861633E0,6.378086700E0,6.876252444E0
2.405906783E1,-3.082988892E0,5.380860443E0,1.290780807E1,1.432026497E1
2.425947471E1,-2.365381165E0,1.178050232E-1,6.940167847E0,7.333132742E0
2.445988171E1,-7.321275330E-1,4.228406982E0,5.115761719E0,6.677308911E0
2.466028971E1,-2.404150543E0,5.251679077E0,1.198767151E1,1.330655257E1
2.486069671E1,-1.161734161E0,2.084714813E0,6.402935028E0,6.833245136E0
2.506110371E1,-1.329684906E0,4.436474304E0,7.118596802E0,8.492631314E0
2.526151125E1,-4.363426208E-1,-9.710307312E-1,1.647863251E1,1.651298352E1
2.546191925E1,-5.831872559E-1,1.914818115E0,5.822142792E0,6.156621028E0
2.566232625E1,-1.052311707E0,4.914729767E0,1.187854843E1,1.289813325E1
2.586273325E1,-2.097737732E0,1.826801147E0,7.200626221E0,7.719243745E0
2.606314025E1,8.502319336E-2,1.654210052E0,4.357139282E0,4.661362737E0
2.626354796E1,-9.059161377E-1,4.244723053E0,1.565220108E1,1.624283708E1
2.646395496E1,6.988966370E-1,2.447260895E0,5.438191223E0,6.004287316E0
2.666436196E1,-2.520308990E0,2.405797119E0,9.082662506E0,9.728030396E0
2.686476996E1,-2.481539612E0,1.082997894E0,1.419453232E1,1.445045574E1
2.706517696E1,-1.121168518E-1,5.878276062E-1,6.459966431E0,6.487624971E0
2.726558450E1,-2.723586273E0,1.757046204E0,1.343336517E1,1.381884342E1
2.746599150E1,6.271957397E-1,1.926493835E0,8.376431122E0,8.617966775E0
2.766639850E1,-1.368603973E0,2.329156494E0,5.121898956E0,5.790673167E0
2.786680550E1,-9.232800293E-1,5.096451874E0,1.313877777E1,1.412280953E1
2.806721250E1,-3.818559265E-1,1.676363983E0,6.554869080E0,6.776600830E0
2.826761858E1,-3.604504395E-1,4.145180054E0,8.503217468E0,9.466633483E0
2.846802558E1,1.487307129E0,-3.802093506E-1,1.224603424E1,1.234187977E1
2.866843258E1,5.628295898E-1,2.555635529E0,7.180567932E0,7.642552318E0
2.886883958E1,-4.458628235E0,1.993554382E0,1.042312500E1,1.151065418E1
2.906924638E1,9.041198730E-2,2.738405457E0,7.280260620E0,7.778768120E0
2.926965338E1,-1.815125427E0,3.273991699E0,5.192402344E0,6.401151776E0
2.947005938E1,-7.783813477E-2,5.125341797E0,1.302007462E1,1.399276707E1
2.967046638E1,-1.258582764E0,1.823657684E0,5.270090790E0,5.716958532E0
2.987087238E1,-4.861889648E-1,4.368964691E0,1.417761749E1,1.484348577E1
3.007127896E1,-4.949607239E0,6.991960144E-1,9.486672363E0,1.072307975E1
3.027168496E1,-4.272116089E-1,1.248254242E0,6.520590363E0,6.652724787E0
3.047209096E1,-4.752616882E-1,4.078418884E0,1.398302216E1,1.457341013E1
3.067249696E1,-6.361770630E-1,2.850222931E0,4.900060272E0,5.704303874E0
3.087290296E1,-1.301992493E0,3.651656342E0,6.082301788E0,7.212778489E0
3.107330883E1,-2.451003113E0,4.432133331E0,1.463282089E1,1.548453000E1
3.127371483E1,-1.123114471E0,2.206411743E0,5.755830688E0,6.265718300E0
3.147412083E1,-2.344424744E0,3.788022766E0,9.525441742E0,1.051567802E1
3.167452683E1,-5.424719238E-1,4.245172119E-1,1.239976456E1,1.241888287E1
3.187493183E1,-1.278641052E0,1.860630798E0,6.556815033E0,6.934601163E0
3.207533821E1,-1.758393402E0,3.608246613E0,1.254780670E1,1.317417337E1
3.227574321E1,-2.373763733E0,1.870510254E0,9.086554413E0,9.575961256E0
3.247614921E1,-7.246430969E-1,3.449127502E0,4.758604431E0,5.921647092E0
3.267655421E1,1.140628052E0,6.786437531E0,1.372989853E1,1.535795821E1
3.287695921E1,3.469784546E-1,2.564766541E0,3.931125183E0,4.706608828E0
3.307736437E1,2.168540497E0,4.017944641E0,1.362691269E1,1.437147162E1
3.327776938E1,-5.043462067E0,-2.013762360E0,1.495405289E1,1.590960233E1
3.347817437E1,7.188052368E-1,2.280956726E0,4.903802490E0,5.455888875E0
3.367857938E1,3.255729675E-1,4.302951965E0,1.211236221E1,1.285809907E1
3.387898437E1,1.089733887E-1,1.351988525E0,7.593259735E0,7.713451988E0
3.407938888E1,-2.028581543E0,2.517015839E0,7.102729797E0,7.803799227E0
3.427979388E1,-1.846560059E0,5.234464874E0,1.167137924E1,1.292402801E1
3.448019788E1,-8.641529846E-1,1.656605072E0,7.019652557E0,7.264063792E0
3.468060288E1,-6.110293579E-1,5.372477875E0,4.637057190E0,7.123143602E0
3.488100688E1,-7.018904114E-1,2.067799988E0,1.509266464E1,1.524981878E1
3.508141221E1,3.095562744E-1,1.461560669E0,6.955436096E0,7.114075904E0
3.528181621E1,-1.828896790E0,4.204157410E0,1.325313995E1,1.402374849E1
3.548222021E1,-1.285526733E0,8.785231018E-1,8.691376190E0,8.829745291E0
3.568262421E1,-8.846603394E-2,2.275867310E0,5.609435120E0,6.054185380E0
3.588302821E1,-3.047662354E-1,4.113745422E0,1.185789139E1,1.255489435E1
3.608343233E1,1.387315063E0,2.770738220E0,5.966143341E0,6.722834204E0
3.628383633E1,-1.177152100E0,3.460803223E0,8.382867737E0,9.145234688E0
3.648424033E1,-4.116439819E-1,1.492546234E0,1.600681366E1,1.608151823E1
3.668464333E1,6.207591248E-1,1.780697021E0,5.930068359E0,6.222695117E0
3.688504733E1,-1.592089233E0,1.399439850E0,1.666679123E1,1.680104490E1
3.708545150E1,-3.348536682E-1,5.827381897E-1,7.401358795E0,7.431811542E0
3.728585450E1,-1.562450867E0,1.786385193E0,5.912554779E0,6.371085369E0
3.748625750E1,-8.307723999E-1,5.026696930E0,1.271186554E1,1.369486730E1
3.768666150E1,-1.504970398E0,1.099613342E0,7.548802185E0,7.775506403E0
3.788706450E1,-1.483265533E0,2.863694916E0,9.717791748E0,1.023895999E1
3.808746708E1,2.184407501E0,1.344055023E0,1.403391632E1,1.426635648E1
3.828787008E1,-3.722758484E-1,1.385818176E0,6.081403656E0,6.248403936E0
3.848827308E1,-1.926942902E0,2.685415649E0,1.141915375E1,1.188787779E1
3.868867608E1,-1.931433563E0,-1.938468933E-1,1.135553604E1,1.152025221E1
3.888907808E1,-1.345551910E0,1.525477753E0,3.766766968E0,4.280902441E0
3.908948113E1,-5.864804077E-1,3.449277191E0,1.246592697E1,1.294761784E1
3.928988412E1,1.738484802E0,3.082689514E0,7.521708527E0,8.312725378E0
3.949028612E1,-2.025737457E0,3.186423798E0,6.024222565E0,7.109723368E0
3.969068913E1,-8.038284302E-2,4.354594574E0,1.375908783E1,1.443195944E1
3.989109113E1,-1.883084106E-1,8.738827515E-1,5.914650421E0,5.981824197E0
4.009149308E1,-9.042695618E-1,3.526965637E0,1.269824387E1,1.320994274E1
4.029189508E1,-4.224215698E-1,5.128335571E-1,1.184441940E1,1.186303963E1
4.049229808E1,-1.633553009E0,1.967957611E0,4.782255249E0,5.423220248E0
4.069270008E1,-1.543440399E0,4.181105347E0,1.288550446E1,1.363451779E1
4.089310108E1,-1.757046204E0,1.553918610E0,7.889044647E0,8.230364503E0
4.109350333E1,-5.254074097E-1,4.232298889E0,6.624923401E0,7.878960395E0
4.129390533E1,-4.719685364E-1,-6.530918884E-1,1.623688522E1,1.625686701E1
4.149430733E1,-1.158141632E0,1.403930511E0,6.821315002E0,7.059932810E0
4.169470833E1,-1.406475220E0,3.297792206E0,1.232521957E1,1.283606807E1
4.189511033E1,-1.157692566E0,1.015488281E0,8.417894897E0,8.557594465E0
4.209551121E1,-5.215155029E-1,2.854114838E0,6.559210052E0,7.172251142E0
4.229591321E1,4.694238281E-1,5.638325043E0,1.180864380E1,1.309408784E1
4.249631421E1,-7.484436035E-3,1.447789307E0,6.569388885E0,6.727036511E0
4.269671521E1,5.691165161E-1,3.948938141E0,1.086081482E1,1.157044963E1
4.289711621E1,-2.240091705E0,-8.677455139E-1,1.336495743E1,1.357914136E1
4.309751696E1,8.217910767E-2,2.622845764E0,4.768633575E0,5.442971568E0
4.329791796E1,8.083190918E-2,2.515668640E0,1.536419998E1,1.556900008E1
4.349831896E1,-8.044271851E-1,1.402134247E0,6.283483429E0,6.488085044E0
4.369871996E1,-4.087998962E-1,3.354224854E0,7.132068787E0,7.892043265E0
4.389911996E1,1.790277100E0,6.181695099E0,1.309626617E1,1.459214289E1
4.409952133E1,4.858895874E-1,2.487676849E0,5.662574615E0,6.203980664E0
4.429992133E1,5.442681885E-1,3.675606537E0,1.125015518E1,1.184788179E1
4.450032233E1,9.204359436E-1,-2.095642090E-1,9.225764923E0,9.273934327E0
4.470072233E1,-8.523275757E-1,2.711162109E0,6.398144989E0,7.000937193E0
4.490112233E1,-1.314266968E0,2.151026917E0,1.156884247E1,1.184028422E1
4.510152313E1,-7.735913086E-1,1.126557312E0,8.316405945E0,8.427940598E0
4.530192313E1,-1.678609314E0,2.764002228E0,1.004980133E1,1.055726974E1
4.550232313E1,-7.918533325E-1,-7.532336426E-1,1.502949600E1,1.506917857E1
4.570272312E1,-1.555265808E-1,1.422342224E0,5.477559357E0,5.661351643E0
4.590312213E1,3.293151855E-3,3.120411072E0,1.281679733E1,1.319118152E1
4.610352271E1,-8.511300659E-1,1.123264160E0,9.039701843E0,9.148899069E0
4.630392271E1,-1.091230774E0,2.371967468E0,6.745871887E0,7.233519323E0
4.650432271E1,3.213816833E-1,6.213578796E-1,1.359607681E1,1.361406172E1
4.670472171E1,8.710386658E-1,1.278790741E0,6.158044281E0,6.349450644E0
4.690512171E1,3.332070923E-1,3.300636292E0,1.098326019E1,1.147332695E1
4.710551958E1,-1.294508057E0,-8.566685486E-1,1.166149979E1,1.176436183E1
4.730591858E1,6.526428223E-2,2.003134460E0,4.581672363E0,5.000852801E0
4.750631758E1,2.154020691E-1,1.386117554E0,1.530357605E1,1.536773112E1
4.770671758E1,7.104226685E-1,1.561253357E0,7.449857941E0,7.644775716E0
4.790711658E1,-4.695735168E-1,2.796035614E0,7.711813202E0,8.216469881E0
4.810751671E1,1.007554779E0,5.074896698E0,1.079330521E1,1.196934336E1
4.830791471E1,4.849914551E-2,1.183439026E0,6.500083008E0,6.607114287E0
4.850831371E1,-8.168513489E-1,1.969304810E0,1.104627914E1,1.125014180E1
4.870871271E1,8.402027893E-1,1.091081085E0,1.004096970E1,1.013496281E1
4.890911171E1,-2.293231201E-1,2.155367889E0,4.284240875E0,4.801345614E0
4.910950883E1,-1.772763519E0,8.425978088E-1,1.395128815E1,1.408868704E1
4.930990783E1,-8.162525940E-1,1.529669037E0,8.005951538E0,8.191545379E0
4.951030583E1,-5.590873718E-1,3.003504181E0,8.008196869E0,8.571162882E0
4.971070383E1,9.297166443E-1,1.748064880E0,1.178304703E1,1.194823423E1
4.991110183E1,-3.291654968E-1,1.433568878E0,6.074068909E0,6.249622609E0
5.011150096E1,-5.495072937E-1,2.919379120E0,1.032657578E1,1.074536644E1
5.031189896E1,-3.030597839E0,2.209405518E-1,9.514215088E0,9.987673740E0
5.051229696E1,-1.143621826E-1,1.670526123E0,5.464835815E0,5.715607293E0
5.071269496E1,1.658551025E-1,3.991449738E0,1.143546982E1,1.211318079E1
5.091309296E1,-3.890409851E-1,1.636546783E0,5.423970795E0,5.678828880E0
5.111349021E1,-1.834734650E0,3.516637115E0,9.079369354E0,9.907973340E0
5.131388821E1,-5.957611084E-1,2.092348938E0,1.626712234E1,1.641195067E1
5.151428621E1,-3.216810608E-1,1.567689972E0,6.324348450E0,6.523688670E0
5.171468321E1,-9.744735718E-2,2.656675415E0,1.402239029E1,1.427217046E1
5.191508021E1,5.792953491E-1,2.698887634E-1,8.464597778E0,8.488688862E0
5.211547871E1,-1.008303223E0,2.479294281E0,4.685406647E0,5.395981001E0
5.231587571E1,-5.391787720E-1,3.684438171E0,1.383962036E1,1.433181392E1
5.251627271E1,-1.046473846E0,1.174308014E0,8.301137695E0,8.448845712E0
5.271667071E1,-3.884422302E-1,3.661086731E0,7.084617462E0,7.984124749E0
5.291706771E1,-5.427713013E-1,-3.040177917E-1,1.749247421E1,1.750353340E1
5.311746383E1,-9.131011963E-3,1.700164490E0,5.774990845E0,6.020063282E0
5.331786083E1,-8.872050476E-1,2.783012695E0,1.319625824E1,1.351567697E1
5.351825783E1,-1.962718506E0,3.246748352E-1,9.925110626E0,1.012252432E1
5.371865483E1,1.850152588E-1,1.985920258E0,5.073848877E0,5.451793498E0
5.391905083E1,1.721420288E-1,4.484374695E0,1.280482224E1,1.356844581E1
5.411944846E1,8.415499878E-1,1.929786987E0,7.494165802E0,7.784266521E0
5.431984546E1,-2.179318085E0,3.205883331E0,9.070238342E0,9.863890654E0
5.452024146E1,1.850152588E-1,4.349954224E-1,1.886526947E1,1.887119084E1
5.472063846E1,8.964857483E-1,1.766476593E0,5.426665192E0,5.776921443E0
5.492103446E1,5.363346863E-1,3.060236206E0,1.168320465E1,1.208925024E1
5.512143133E1,8.650511169E-1,3.649411011E-1,9.989626465E0,1.003365000E1
5.532182733E1,-1.241817627E0,2.460283813E0,6.329437866E0,6.903397074E0
5.552222333E1,-1.173559570E0,2.638263702E0,1.438448730E1,1.467144003E1
5.572261933E1,-1.957329712E0,1.504671021E0,8.036637726E0,8.407301613E0
5.592301533E1,-7.415579224E-1,3.977977753E0,6.115682373E0,7.333197532E0
5.612341083E1,3.448828125E-1,2.740201721E0,1.300271072E1,1.329278510E1
5.632380683E1,5.745053101E-1,2.099833374E0,6.478078766E0,6.834095481E0
5.652420283E1,-2.088007965E0,3.077749786E0,1.175116333E1,1.232567080E1
5.672459883E1,-1.331630859E0,4.628375244E-1,9.602830811E0,9.705762149E0
5.692499483E1,2.462379456E-1,2.180814972E0,5.585035858E0,6.000767668E0
5.712538987E1,-4.119433594E-1,2.329755249E0,1.289732986E1,1.311253501E1
5.732578588E1,3.933819580E-1,2.051633606E0,8.317902832E0,8.576214628E0
5.752618188E1,-1.645528107E0,3.240162048E0,8.715027008E0,9.442357153E0
5.772657687E1,2.116598511E-1,4.717140656E0,1.226085342E1,1.313867355E1
5.792697188E1,1.264121246E0,2.555485840E0,6.063590698E0,6.700421073E0
5.812736808E1,-1.388512573E0,4.001628571E0,1.260932877E1,1.330173561E1
5.832776308E1,1.648671570E0,4.195774841E-1,8.196056213E0,8.370752694E0
5.852815808E1,-1.376088409E0,2.105521545E0,5.393733673E0,5.951403467E0
5.872855308E1,-8.954379272E-1,2.097588043E0,1.581311646E1,1.597674362E1
5.892894808E1,-1.138532410E0,1.619631958E0,7.322921906E0,7.585818938E0
5.912934333E1,-1.120270386E0,2.590662689E0,5.600304108E0,6.271359103E0
5.932973833E1,9.410929871E-1,1.529519348E0,1.524878998E1,1.535417472E1
5.953013333E1,-1.269360352E-1,1.891466675E0,5.275180206E0,5.605469217E0
5.973052833E1,-6.938072205E-1,4.066743164E0,1.046848068E1,1.125206009E1
5.993092233E1,-3.159629517E0,2.974314880E-1,9.948162689E0,1.044211018E1
6.013131696E1,-9.108558655E-1,2.492466888E0,4.026476898E0,4.822298810E0
6.033171096E1,7.447013855E-1,3.780688019E0,1.533216660E1,1.580896943E1
6.053210596E1,1.821711731E-1,2.197729797E0,6.878196716E0,7.223073630E0
6.073249996E1,-1.329684906E0,3.175945587E0,7.611072693E0,8.353629143E0
6.093289496E1,-1.571731567E-1,3.951183472E0,1.431607956E1,1.485216106E1
6.113328946E1,7.065307617E-1,2.067650299E0,6.100563812E0,6.480064992E0
6.133368346E1,-7.441026306E-1,3.472029877E0,1.007704468E1,1.068435818E1
6.153407746E1,1.273102570E0,1.876797180E0,9.764195251E0,1.002410429E1
6.173447146E1,-1.569935303E0,1.533560944E0,4.727169800E0,5.211778999E0
6.193486546E1,-1.952839050E0,3.537294159E0,1.441532318E1,1.497089085E1
6.213525896E1,-1.006057892E0,1.152004395E0,9.580826569E0,9.702139163E0
6.233565296E1,-1.006506958E0,2.851869507E0,3.854634247E0,4.899430693E0
6.253604596E1,5.191204834E-1,4.250860291E0,1.265857635E1,1.336333995E1
6.273643996E1,9.535171509E-1,2.597548370E0,5.490282898E0,6.148142711E0
6.293683396E1,-1.641187134E0,3.952979736E0,1.049467621E1,1.133392133E1
6.313722708E1,-1.506167908E0,1.241069183E0,1.168619843E1,1.184803900E1
6.333762108E1,1.300794983E-1,2.086810455E0,5.564827881E0,5.944662135E0
6.353801408E1,1.475930786E-1,3.561843109E0,1.285421951E1,1.333939539E1
6.373840708E1,9.202862549E-1,2.452649689E0,7.086413727E0,7.555109317E0
6.393880108E1,-1.903142395E0,3.210972748E0,7.921976166E0,8.757282874E0
6.413919400E1,-8.482859802E-1,4.684059448E0,1.473805206E1,1.548774292E1
6.433958700E1,-6.580316162E-1,1.376986542E0,7.100783844E0,7.262935270E0
6.453998000E1,-9.330097961E-1,3.591182098E0,1.163440613E1,1.221173624E1
6.474037300E1,1.404080200E-1,9.684860229E-2,1.023945694E1,1.024087753E1
6.494076600E1,-5.165757751E-1,3.118315430E0,4.635709991E0,5.610752960E0
6.514115946E1,-2.609822845E0,3.218906250E0,1.272219406E1,1.338008798E1
6.534155146E1,-2.099234619E0,8.321195984E-1,1.007494904E1,1.032491196E1
6.554194446E1,-1.977687378E0,4.478237457E0,7.609276428E0,9.048035469E0
6.574233746E1,-8.382568359E-1,1.887574768E0,1.339699081E1,1.355525639E1
6.594272946E1,-4.099974060E-1,1.838776245E0,6.073619843E0,6.359092226E0
6.614312171E1,-2.570604401E0,3.239114227E0,1.300585419E1,1.364742141E1
6.634351371E1,-3.245850220E0,-2.463876343E-1,1.118114868E1,1.164535686E1
6.654390571E1,-1.204545135E0,1.765428772E0,4.268972626E0,4.774075304E0
6.674429871E1,-5.501060486E-1,2.717898102E0,1.283505936E1,1.313119703E1
6.694469071E1,1.053808594E0,2.716401215E0,6.464008026E0,7.090327769E0
6.714508296E1,-1.713337097E0,3.241808624E0,5.398823090E0,6.526265235E0
6.734547496E1,-2.357447662E0,3.556454315E0,1.238644226E1,1.310075871E1
6.754586696E1,2.576142883E-1,1.707050171E0,5.796546021E0,6.048167588E0
6.774625896E1,-1.607656860E-1,4.027824097E0,1.045530807E1,1.120547543E1
6.794664996E1,-1.356179810E-1,-1.513352966E-1,1.505898468E1,1.506035571E1
6.814704183E1,-1.105451202E0,2.030976563E0,5.357509003E0,5.835219865E0
6.834743383E1,-2.962339783E-1,3.395239563E0,1.285272263E1,1.329691262E1
6.854782483E1,-2.193837891E0,1.240320740E0,9.270970917E0,9.607404539E0
6.874821683E1,-8.659492493E-1,2.406096497E0,6.781497803E0,7.247612083E0
6.894860883E1,-2.189945984E-1,2.915936279E0,1.607402390E1,1.633783606E1
6.914900025E1,1.154998169E0,2.561922455E0,4.713548126E0,5.487713857E0
6.934939125E1,-4.715194702E-1,3.029400330E0,1.033555710E1,1.078069281E1
6.954978325E1,-2.326761475E0,1.339714050E-1,1.516167114E1,1.533975356E1
6.975017425E1,-2.107617188E-1,1.349144440E0,7.617808685E0,7.739226085E0
6.995056525E1,-3.571572876E-1,3.423979797E0,1.218451218E1,1.266149817E1
7.015095625E1,7.688012695E-1,1.652862854E0,9.531578979E0,9.704329387E0
7.035134725E1,-1.609153748E0,2.638413391E0,5.435047760E0,6.252227216E0
7.055173825E1,-2.140249329E0,3.769311676E0,1.393512177E1,1.459369714E1
7.075212925E1,-1.220861206E0,1.132395172E0,6.620432739E0,6.826635377E0
7.095251925E1,-7.041357422E-1,3.020119629E0,9.857301636E0,1.033360176E1
7.115291046E1,-2.326162720E-1,8.771759033E-2,1.664209259E1,1.664394937E1
7.135330146E1,-1.811233521E-1,1.346450043E0,5.756279755E0,5.914430657E0
7.155369146E1,-2.092049561E0,2.435285797E0,1.313997528E1,1.352650135E1
7.175408246E1,-1.724863129E0,2.737806702E-1,9.978399811E0,1.013008250E1
7.195447246E1,-5.158273315E-1,2.126178589E0,5.796695709E0,6.195836858E0
7.215486346E1,1.604663086E-1,3.998335419E0,1.325418777E1,1.384506877E1
7.235525346E1,-9.514215088E-1,1.725761261E0,7.697892151E0,7.946131032E0
7.255564346E1,-1.653012543E0,4.433480530E0,7.029831390E0,8.473885145E0
7.275603446E1,-1.532812500E0,1.010698242E0,1.570354431E1,1.581051324E1
7.295642446E1,2.459385681E-1,1.980830841E0,5.169649658E0,5.541611155E0
7.315681371E1,-1.090781708E0,2.858455811E0,1.198931808E1,1.237353315E1
7.335720371E1,3.742218018E-1,1.463955688E0,8.508606262E0,8.641735285E0
7.355759271E1,-1.200054474E0,2.863395538E0,4.359983368E0,5.352440538E0
7.375798271E1,-3.292702789E0,2.669099579E0,1.291858566E1,1.359617004E1
7.395837271E1,-8.087681580E-1,1.387614441E0,7.816295929E0,7.979602861E0
7.415876358E1,-1.297352142E0,3.002456360E0,8.303233337E0,8.924211485E0
7.435915258E1,-1.151854706E0,-1.189426575E0,1.731419495E1,1.739318405E1
7.455954258E1,-8.515791321E-1,1.682800598E0,4.931345215E0,5.279694167E0
7.475993158E1,-1.451531525E0,3.110082550E0,1.379441437E1,1.421497186E1
7.496032158E1,-2.430196381E0,8.267308044E-1,8.284821625E0,8.673385015E0
7.516071013E1,-1.479972382E0,1.713037720E0,5.072501678E0,5.554735795E0
7.536109912E1,-2.380050659E-1,5.405259705E0,1.091395432E1,1.218145630E1
7.556148813E1,-1.206640778E0,1.394649811E0,6.856791229E0,7.100465902E0
7.576187713E1,-1.513502655E0,3.081342316E0,9.820777588E0,1.040351062E1
7.596226613E1,-2.838098145E0,-4.623884583E-1,1.602193222E1,1.627792727E1
7.616265508E1,-7.539820862E-1,1.572929077E0,5.066065063E0,5.357948310E0
7.636304408E1,-5.321434021E-1,2.197580109E0,1.475915817E1,1.493135241E1
7.656343308E1,-7.711962891E-1,1.417252808E0,7.967631226E0,8.129360158E0
7.676382208E1,-1.463806000E0,3.039279785E0,4.381688232E0,5.529840991E0
7.696421008E1,-4.300856323E0,1.254990234E0,1.398406998E1,1.468422891E1
7.716459971E1,-6.727011108E-1,1.507664795E0,7.762108612E0,7.935736262E0
7.736498871E1,-1.168320465E0,3.899840240E0,8.249495087E0,9.199342139E0
7.756537671E1,7.470964050E-1,-3.746708679E-1,1.466530334E1,1.468909982E1
7.776576471E1,4.547543335E-1,1.955832825E0,6.794071655E0,7.084595486E0
7.796615371E1,-3.549119568E-1,2.334245911E0,1.399694321E1,1.419468512E1
7.816654088E1,-1.683698730E0,6.944059753E-1,7.517517242E0,7.734992344E0
7.836692887E1,-1.390608215E0,1.888173523E0,6.858288116E0,7.248110537E0
7.856731688E1,5.225633240E-1,3.576662292E0,1.245155685E1,1.296560271E1
7.876770488E1,2.071691895E-1,1.592687988E0,5.777984619E0,5.997055974E0
7.896809288E1,-8.261320496E-1,2.233505402E0,1.164144150E1,1.188251660E1
7.916848171E1,-3.412603455E0,-1.238225098E0,1.570549026E1,1.611959950E1
7.936886971E1,5.194198608E-1,1.107397156E0,4.346062317E0,4.514906767E0
7.956925771E1,2.811154175E-1,2.658172302E0,1.243479172E1,1.271884236E1
7.976964571E1,-5.830375671E-1,1.561253357E0,7.425009613E0,7.609744582E0
7.997003371E1,-7.620652771E-1,2.762205963E0,5.437891846E0,6.146640789E0
8.017041983E1,-1.100960541E0,3.837719421E0,1.266186951E1,1.327641307E1
8.037080783E1,-5.703140259E-2,1.319655762E0,7.810458069E0,7.921363466E0
8.057119483E1,1.808239746E-1,3.562890930E0,8.259374542E0,8.996897072E0
8.077158283E1,6.701564026E-1,-6.391708374E-1,1.682097061E1,1.684644477E1
8.097196983E1,3.767665100E-1,2.302960968E0,4.247118073E0,4.845987427E0
8.117235663E1,1.773062897E0,3.703448639E0,1.461440918E1,1.518025822E1
8.137274363E1,-1.048569489E0,1.295406189E0,9.029972076E0,9.182481738E0
8.157313163E1,-5.191204834E-1,2.675536194E0,5.168003082E0,5.842622344E0
8.177351863E1,5.047503662E-1,2.137255554E0,1.561298264E1,1.576666931E1
8.197390563E1,-3.597019958E-1,2.050436096E0,6.614744568E0,6.934588626E0
8.217429258E1,7.235952759E-1,3.940405884E0,1.037372772E1,1.112045932E1
8.237467858E1,-1.798360291E0,-4.207749939E-1,1.108010880E1,1.123298546E1
8.257506558E1,2.236349487E-1,2.485431519E0,5.442232819E0,5.987092823E0
8.277545258E1,-1.576521606E0,2.154619446E0,1.339639206E1,1.365983622E1
8.297583958E1,8.532257080E-2,2.589914246E0,6.647077332E0,7.134323569E0
8.317622621E1,-1.189725952E0,4.377646637E0,7.094796295E0,8.421126551E0
8.337661321E1,-1.878294067E0,8.797206116E-1,1.502485565E1,1.516733939E1
8.357699921E1,2.480342102E-1,1.159339142E0,6.115233307E0,6.229098379E0
8.377738621E1,-2.108964386E0,2.968477020E0,1.217298615E1,1.270595051E1
8.397777221E1,6.414161682E-1,9.487271118E-1,8.459358673E0,8.536524292E0
8.417815800E1,-5.834866333E-1,2.698737946E0,4.625231781E0,5.386688424E0
8.437854500E1,-8.325686646E-1,3.562142487E0,1.277982422E1,1.329307853E1
8.457893100E1,-3.031046906E0,5.349874878E-1,4.858746185E0,5.751597295E0
8.477931700E1,-1.432970123E0,3.555406494E0,8.542136536E0,9.362820905E0
8.497970300E1,-2.116897888E0,-4.200265503E-1,1.472293350E1,1.488027049E1
8.518008908E1,-2.038760376E-1,1.228944397E0,6.530918884E0,6.648666877E0
8.538047508E1,-6.580316162E-1,4.081861725E0,1.169053940E1,1.240013355E1
8.558086008E1,-2.622396698E0,-4.923262024E-1,8.493787079E0,8.903020188E0
8.578124608E1,-1.107995911E0,2.009571075E0,5.199138336E0,5.683051142E0
8.598163208E1,-7.303312683E-1,8.092172241E-1,1.391835663E1,1.396097660E1
8.618201821E1,-2.068698120E-1,2.098037109E0,4.831951904E0,5.271841617E0
8.638240321E1,-5.278024292E-1,2.426005096E0,9.861343231E0,1.016907894E1
8.658278921E1,-1.662442932E0,-9.383985901E-1,1.765578461E1,1.775868910E1
8.678317421E1,-1.096918945E0,1.469045105E0,4.965474243E0,5.293133208E0
8.698355921E1,-8.969348145E-1,2.720742188E0,1.284209473E1,1.315774780E1
8.718394550E1,-5.700146484E-1,-4.076023865E-1,7.138206024E0,7.172519895E0
8.738433050E1,-2.990780640E-1,2.491269379E0,5.834866333E0,6.351498715E0
8.758471550E1,-3.662882996E-1,3.380270691E0,1.331256638E1,1.373989886E1
8.778510050E1,-1.049617310E0,2.205812988E0,5.780978394E0,6.275907793E0
8.798548550E1,-6.069877625E-1,4.007915497E0,8.179141388E0,9.128536280E0
8.818587025E1,-1.270108795E0,2.409988403E-1,1.453522385E1,1.459260049E1
8.838625525E1,2.230361938E-1,1.606609039E0,6.154451752E0,6.364606360E0
8.858664025E1,1.076261902E-1,3.219355316E0,1.240769806E1,1.281900164E1
8.878702425E1,-1.454674988E0,8.017327881E-1,8.618777161E0,8.777367175E0
8.898740925E1,-9.424401855E-1,2.113604736E0,5.118905182E0,5.617713836E0
8.918779425E1,1.391057281E0,3.919599152E0,1.174442734E1,1.245912803E1
8.938817825E1,-1.139131165E-1,1.832339630E0,5.904770966E0,6.183588349E0
8.958856325E1,-8.352630615E-1,2.712060242E0,1.014799713E1,1.053730425E1
8.978894725E1,-3.203338623E0,-1.746867371E0,1.381297577E1,1.428674993E1
8.998933125E1,-1.093326416E0,1.468446350E0,5.641468506E0,5.931093005E0
9.018971608E1,7.324269104E-1,1.763033752E0,1.357018066E1,1.370381481E1
9.039010008E1,8.677455139E-1,1.491348724E0,7.582931213E0,7.776756977E0
9.059048408E1,-1.163081360E0,2.229912872E0,5.281018066E0,5.849309488E0
9.079086808E1,-2.368075562E-1,4.666096802E0,1.166748734E1,1.256816605E1
9.099125208E1,-7.466473389E-1,1.167721710E0,7.532186737E0,7.658648267E0
9.119163658E1,-6.370751953E-1,3.982618103E0,8.445437622E0,9.359088010E0
9.139202058E1,4.951702881E-1,1.115929413E0,1.094479019E1,1.101267108E1
9.159240458E1,8.155041504E-1,1.520837402E0,6.672524414E0,6.892066126E0
9.179278858E1,-1.271755371E0,2.743045807E0,9.184899902E0,9.669749130E0
9.199317158E1,-4.349804535E0,-1.564546509E0,1.861708557E1,1.918240028E1
9.219355571E1,-1.261875916E-1,2.176174622E0,5.824687500E0,6.219215687E0
9.239393871E1,5.125341797E-1,1.206042023E0,1.185384979E1,1.192606320E1
9.259432271E1,-1.163081360E-1,2.531685333E0,7.885302429E0,8.282569203E0
9.279470571E1,-1.710792389E0,2.833757172E0,6.961872711E0,7.708739323E0
9.299508971E1,-3.203638000E0,2.286195831E0,1.227013412E1,1.288589070E1
9.319547258E1,-2.564167786E-1,1.468146973E0,6.984026642E0,7.141276723E0
9.339585558E1,-8.870553589E-1,2.919828186E0,8.311615906E0,8.854107680E0
9.359623958E1,6.810836792E-1,-1.903441772E0,1.610905106E1,1.623540857E1
9.379662258E1,-6.334826660E-1,2.302661591E0,4.515659637E0,5.108300368E0
9.399700558E1,-1.693428497E0,2.828667755E0,1.456231750E1,1.493084567E1
9.419738796E1,6.309379578E-1,5.897735596E-1,9.675729218E0,9.714198446E0
9.439777096E1,-1.613494720E0,2.615810394E0,5.830375671E0,6.590835281E0
9.459815296E1,1.513352966E-1,4.632865906E-1,1.434167633E1,1.434995529E1
9.479853596E1,-3.269201660E-1,1.235231323E0,5.547763367E0,5.693009010E0
9.499891896E1,-1.125808868E0,2.455044708E0,1.326960571E1,1.354168106E1
9.519930058E1,-1.130299530E0,1.281934204E0,8.789571991E0,8.954189417E0
9.539968358E1,-1.156944122E0,1.953587494E0,5.419180756E0,5.875588810E0
9.560006558E1,3.634292450E0,7.813900909E0,1.155701706E1,1.441630231E1
9.580044858E1,-6.724017334E-1,3.326083374E0,3.171305237E0,4.644580886E0
9.600083058E1,-6.417155457E-1,4.241280212E0,9.974358215E0,1.085762766E1
9.620121313E1,-3.445984039E0,6.957531738E-1,1.588811050E1,1.627239791E1
9.640159512E1,-3.385958862E-1,1.107247467E0,6.421047363E0,6.524606760E0
9.660197713E1,-1.038390656E0,4.620890808E0,1.040186920E1,1.142933812E1
9.680235913E1,9.229806519E-1,1.608405304E0,9.209299164E0,9.394149881E0
9.700274112E1,-7.527845764E-1,2.269580383E0,5.657634888E0,6.142191161E0
9.720312296E1,-2.930605774E0,2.877466278E0,1.419303543E1,1.477533476E1
9.740350496E1,-3.733236694E-1,1.601669312E0,8.362360382E0,8.522545764E0
9.760388696E1,-5.761518860E-1,4.173471222E0,5.622907104E0,7.026158078E0
9.780426896E1,6.565347290E-1,2.371668091E0,1.185564606E1,1.210835211E1
9.800465096E1,8.723858643E-1,1.775906982E0,5.422473907E0,5.772185547E0
9.820503275E1,1.459764404E0,3.005749512E0,1.475586502E1,1.512947437E1
9.840541475E1,-1.063538361E0,3.839515686E-1,1.148307083E1,1.153860686E1
9.860579575E1,-7.000941467E-1,2.269879761E0,5.004692688E0,5.539804585E0
9.880617775E1,-1.615141296E-1,2.210453339E0,1.279778687E1,1.298828470E1
9.900655875E1,2.088307343E0,2.377206573E0,5.902076569E0,6.696763881E0
9.920693988E1,-1.385967865E0,2.212848358E0,1.075034454E1,1.106288898E1
9.940732088E1,-6.126759338E-1,2.326162720E0,1.174697205E1,1.199073630E1
9.960770188E1,-9.310638428E-2,1.668729858E0,4.497397614E0,4.797907193E0
9.980808388E1,4.191284180E-3,3.649111633E0,1.106364304E1,1.164990260E1
1.000084649E2,8.385562134E-1,1.873354340E0,1.097577576E1,1.116603271E1
1.002088457E2,-1.625469818E0,2.695295105E0,5.491779785E0,6.329803555E0
1.004092268E2,-3.646417236E-1,5.369484100E0,1.061936691E1,1.190526256E1
1.006096078E2,-3.664379883E-1,1.481319580E0,7.513026581E0,7.666430258E0
1.008099888E2,-4.528083801E-1,3.659589844E0,9.580227814E0,1.026539810E1
1.010103698E2,1.225351868E0,-2.020797729E-2,1.543949341E1,1.548805515E1
1.012107506E2,-1.651066589E-1,1.639989624E0,5.413342896E0,5.658719597E0
1.014111316E2,-1.221609650E0,2.468217316E0,1.090422455E1,1.124662349E1
1.016115126E2,-1.329535217E0,-1.262923737E0,1.411370041E1,1.423232867E1
1.018118936E2,-5.219645691E-1,9.677375793E-1,6.815028076E0,6.903156576E0
1.020122736E2,1.867965546E0,1.512604523E0,1.376238098E1,1.397069784E1
1.022126541E2,-4.418811035E-1,2.066752167E0,6.060746613E0,6.418673767E0
1.024130341E2,-4.085005188E-1,2.825224915E0,6.894812164E0,7.462385897E0
1.026134151E2,-8.324189758E-1,3.224594421E0,1.326751007E1,1.367909917E1
1.028137951E2,9.602531433E-1,1.326840820E0,6.583759003E0,6.784428883E0
1.030141751E2,-7.406597900E-1,2.659519501E0,9.901010742E0,1.027869810E1
1.032145557E2,1.197958832E0,-4.441264343E-1,1.558753555E1,1.563980877E1
1.034149367E2,-8.936416626E-1,1.620979156E0,5.203329620E0,5.522753660E0
1.036153167E2,-1.409918060E0,1.512754211E0,1.316182983E1,1.332329009E1
1.038156967E2,-2.031874695E0,1.135688324E0,8.900191956E0,9.199549967E0
1.040160767E2,-6.544390869E-1,2.288291473E0,5.415887604E0,5.915776105E0
1.042164558E2,9.737251282E-1,3.473227386E0,1.125240051E1,1.181642782E1
1.044168348E2,1.381626892E-1,1.762584686E0,7.666906586E0,7.868116058E0
1.046172148E2,-2.568658447E-1,3.035986633E0,9.146878967E0,9.640984895E0
1.048175948E2,-9.571096802E-1,6.870712280E-2,1.070813232E1,1.075104076E1
1.050179748E2,3.442840576E-3,1.813478851E0,6.006559296E0,6.274350323E0
1.052183545E2,3.005749512E-1,2.217189331E0,1.481678833E1,1.498477528E1
1.054187345E2,7.021897888E-1,2.975362701E0,4.906945953E0,5.781346927E0
1.056191135E2,3.966751099E-2,3.235821075E0,7.272776184E0,7.960237746E0
1.058194935E2,-1.256636810E0,2.829715576E0,1.400382889E1,1.434202391E1
1.060198725E2,1.999841309E-1,1.468745728E0,7.678881683E0,7.820641379E0
1.062202513E2,-1.570234680E0,1.682650909E0,1.212119385E1,1.233775876E1
1.064206312E2,1.122066650E0,-1.006956024E0,1.078806610E1,1.089290431E1
1.066210102E2,-7.893086243E-1,2.104773102E0,5.366340637E0,5.818134559E0
1.068213892E2,-1.362766113E0,2.723885651E0,1.231878296E1,1.268972411E1
1.070217683E2,-3.893403625E-1,6.827302551E-1,1.054003189E1,1.056929415E1
1.072221466E2,-9.547146606E-1,2.808759155E0,4.963677979E0,5.782621131E0
1.074225256E2,3.129991150E-1,1.745220795E0,1.534503983E1,1.544713602E1
1.076229046E2,-1.300794983E-1,1.041833496E0,7.862100677E0,7.931895409E0
1.078232826E2,-9.084608459E-1,3.145409088E0,1.036010605E1,1.086511375E1
1.080236616E2,-1.916015625E0,6.394702148E-1,9.534722443E0,9.746331109E0
1.082240411E2,-4.101470947E-2,2.133962402E0,4.236041107E0,4.743366105E0
1.084244191E2,-7.824229431E-1,3.529510345E0,1.247101639E1,1.298444757E1
1.086247981E2,3.240760803E-1,2.226470032E0,7.196135559E0,7.539665848E0
1.088251761E2,-1.043031006E0,3.137026520E0,8.056995392E0,8.708847444E0
1.090255551E2,-8.963360596E-1,2.317929840E0,1.460782288E1,1.481771596E1
1.092259332E2,9.930349731E-1,2.146087189E0,6.359674988E0,6.785077349E0
1.094263122E2,-1.101708984E-1,3.132535858E0,9.370813293E0,9.881146710E0
1.096266902E2,6.779402161E-1,5.134323120E-1,1.339145233E1,1.341842805E1
1.098270682E2,-2.644999695E-1,1.792971497E0,5.561834106E0,5.849675688E0
1.100274462E2,-3.996688843E-1,2.895428925E0,1.209424988E1,1.244243240E1
1.102278241E2,-3.992198181E-1,1.467099152E0,1.104343506E1,1.114761025E1
1.104282021E2,6.309379578E-1,2.043849792E0,6.788233795E0,7.117269332E0
1.106285801E2,5.077441406E-1,3.996988220E0,1.047446823E1,1.122266473E1
1.108289581E2,1.489253082E0,2.394720154E0,7.210505676E0,7.742347930E0
1.110293361E2,-1.562151489E0,1.919757843E0,7.386389923E0,7.790028469E0
1.112297131E2,-2.331102448E0,7.551795959E-1,1.827789093E1,1.844141078E1
1.114300911E2,-7.759863281E-1,6.625222778E-1,8.066575470E0,8.130850531E0
1.116304691E2,-1.649869080E0,1.286424866E0,9.842482452E0,1.006237635E1
1.118308461E2,-5.987548828E-1,-5.083428955E-1,1.196521820E1,1.199097021E1
1.120312241E2,-6.735992432E-2,1.520088959E0,7.189399567E0,7.348651164E0
1.122316010E2,4.875361633E-1,1.193917236E0,1.159698395E1,1.166846890E1
1.124319790E2,-3.298091583E0,3.061134338E-1,1.353829697E1,1.393759657E1
1.126323560E2,1.239422607E0,-8.906478882E-2,9.782906342E0,9.861508882E0
1.128327340E2,2.036365356E0,1.880090332E-1,1.461560669E0,2.513621063E0
1.130331110E2,-1.199306030E0,2.072739716E0,1.010623398E1,1.038607482E1
1.132334883E2,-2.658022614E0,1.570084991E0,8.554111633E0,9.094123208E0
1.134338653E2,-5.810916138E-1,-1.376088409E0,1.327574295E1,1.335951487E1
1.136342423E2,2.341730347E0,-2.292183380E0,3.926185455E0,5.113974765E0
1.138346193E2,1.848805389E0,2.134860535E0,1.684551956E1,1.708061006E1
1.140349963E2,-8.340655518E-1,2.066003723E0,7.459288330E0,7.784922551E0
1.142353732E2,3.709286499E-1,8.699908447E-1,1.625859009E1,1.628607454E1
1.144357502E2,4.796325989E0,-1.786834259E0,3.038980408E0,5.952555886E0
1.146361262E2,7.866142273E-1,3.668870544E0,1.522109756E1,1.567677212E1
1.148365032E2,-1.443298645E0,9.678872681E-1,4.429738312E0,4.758413418E0
1.150368802E2,-1.105301514E0,1.134191437E0,1.014260834E1,1.026550464E1
1.152372562E2,3.537144470E0,-1.055305481E-1,5.841003571E0,6.829337480E0
1.154376332E2,-1.549427948E0,3.175496521E0,1.048898804E1,1.106812428E1
1.156380092E2,-3.172951813E0,-5.388793945E-1,6.696624298E0,7.429858087E0
1.158383862E2,4.212240601E-1,5.087919617E-1,1.303010376E1,1.304683498E1
1.160387622E2,4.685256958E0,-1.359023895E0,7.776029663E0,9.179608708E0
1.162391382E2,2.087858276E0,4.845573578E0,8.170758820E0,9.726254941E0
1.164395142E2,4.176315308E-2,1.901046753E0,9.479936371E0,9.668759823E0
1.166398912E2,-5.421725464E-1,5.760021973E-1,1.508173737E1,1.510246773E1
1.168402672E2,1.979333954E0,-2.622546387E-1,6.196065216E0,6.509820624E0
1.170406432E2,1.788780212E-1,2.183209991E0,1.640244095E1,1.654806551E1
1.172410188E2,-3.896696777E0,1.147962799E0,5.929319916E0,7.187412540E0
1.174413948E2,2.259251862E0,5.504054260E-1,1.982971390E1,1.996558836E1
1.176417708E2,1.924697571E0,1.569785614E0,7.003336487E0,7.430707205E0
1.178421468E2,3.365900574E0,3.583997040E0,9.066047058E0,1.031346357E1
1.180425218E2,3.322341156E0,3.226240997E0,9.278904419E0,1.037037362E1
1.182428978E2,-1.157991943E0,5.185067596E0,7.370822296E0,9.085972300E0
1.184432738E2,2.005978546E0,2.493963776E0,1.162737076E1,1.205983234E1
1.186436488E2,-8.144563293E-1,3.353626099E0,4.672683105E0,5.808968456E0
1.188440248E2,1.362766113E0,3.100352783E0,1.123997635E1,1.173909652E1
1.190443998E2,2.906954956E0,6.141728210E-1,7.877967682E0,8.419618172E0
1.192447764E2,6.239025879E-1,3.642076263E0,6.347699890E0,7.344880383E0
1.194451514E2,1.336271210E0,2.977757721E0,1.336226303E1,1.375509851E1
1.196455274E2,9.961784363E-1,2.850073242E-1,7.372618561E0,7.445072538E0
1.198459024E2,3.423381042E-1,3.630550232E0,9.043444061E0,9.750998454E0
1.200462774E2,1.385668488E0,-1.231489105E0,1.615814896E1,1.626414524E1
1.202466519E2,1.434017944E-1,5.466632080E-1,8.314160614E0,8.333346954E0
1.204470269E2,4.022135925E-1,2.000589752E0,1.146720383E1,1.164735587E1
1.206474019E2,-1.281335449E0,-1.311273193E0,1.166135010E1,1.180458996E1
1.208477769E2,-7.071295166E-1,1.444795532E0,4.398153992E0,4.683078562E0
1.210481519E2,1.089434509E0,1.286574554E0,1.197135544E1,1.208947859E1
1.212485272E2,2.609373779E0,1.611698456E0,7.039710846E0,7.678797577E0
1.214489022E2,7.334747314E-1,2.600242767E0,8.953930206E0,9.352652766E0
1.216492772E2,1.465452576E-1,8.936416626E-2,1.608480148E1,1.608571727E1
1.218496522E2,-1.341210938E-1,9.413923645E-1,4.918921051E0,5.009989257E0
1.220500262E2,-1.793869629E0,1.097368011E0,1.667128189E1,1.680338730E1
1.222504017E2,1.047821045E0,-1.151555328E0,1.040456360E1,1.052040647E1
1.224507757E2,-5.807922363E-2,2.690056000E0,6.089486847E0,6.657448801E0
1.226511507E2,-1.953288116E0,3.132835236E0,1.314072372E1,1.364949124E1
1.228515247E2,4.366419983E-1,1.496737518E0,6.853049011E0,7.028169049E0
1.230518997E2,-7.204518127E-1,2.595452728E0,9.144783325E0,9.533230709E0
1.232522731E2,-3.311114502E-1,-8.241860962E-1,1.310390030E1,1.313396820E1
1.234526481E2,7.125183105E-2,9.854008484E-1,6.082152100E0,6.161871941E0
1.236530221E2,2.439776459E0,2.610870667E0,1.733769608E1,1.770211456E1
1.238533961E2,-1.564247131E-1,1.360071716E0,1.011087433E1,1.020313890E1
1.240537701E2,-3.366499329E-1,2.421215057E0,5.275479584E0,5.814318565E0
1.242541440E2,2.070644073E0,3.822451172E0,1.215981354E1,1.291354967E1
1.244545180E2,1.214574280E0,2.187401276E0,5.223088531E0,5.791422004E0
1.246548920E2,1.743274841E0,4.277355194E0,9.627679138E0,1.067834164E1
1.248552660E2,-1.911674652E0,-1.167572021E-2,1.324400894E1,1.338127083E1
1.250556400E2,-5.807922363E-1,8.607101440E-1,5.499264221E0,5.596431769E0
1.252560140E2,1.040935364E0,1.405277710E0,1.677950684E1,1.687039423E1
1.254563870E2,1.448986816E0,1.185384979E0,6.521338806E0,6.784729926E0
1.256567610E2,-9.871971130E-1,1.708397369E0,6.614744568E0,6.902754915E0
1.258571350E2,-2.116448822E0,2.254312134E0,1.269495071E1,1.306610319E1
1.260575080E2,-1.888023834E0,9.113049316E-1,5.962550812E0,6.320373633E0
1.262578820E2,-7.837701416E-1,2.011217651E0,1.109986771E1,1.130780063E1
1.264582550E2,-1.010698242E0,-2.314187622E-1,1.404978333E1,1.408799053E1
1.266586290E2,-1.073118439E0,6.620732117E-1,5.918392639E0,6.051222649E0
1.268590020E2,-6.822811890E-1,3.121458893E0,1.250185226E1,1.290369417E1
1.270593750E2,-2.803819427E0,-5.007087708E-1,9.911788330E0,1.031288808E1
1.272597485E2,-3.318598938E-1,2.686014404E0,5.091512146E0,5.766133913E0
1.274601225E2,-1.937870178E0,8.904981995E-1,1.645647858E1,1.659409579E1
1.276604955E2,-3.056643677E-1,1.360520782E0,5.921386414E0,6.083359644E0
1.278608685E2,-1.577719116E0,2.811303864E0,8.659193115E0,9.239818853E0
1.280612415E2,-4.828059998E0,-8.460406494E-1,1.556732758E1,1.632077314E1
1.282616137E2,-1.898052979E0,3.854484558E-1,5.082231445E0,5.438773031E0
1.284619867E2,-2.068249054E0,3.782184906E0,1.332079926E1,1.400093817E1
1.286623587E2,-2.749931488E0,-6.021977234E-1,9.063801727E0,9.490904437E0
1.288627317E2,-1.608554993E0,2.323019257E0,5.184169464E0,5.904191788E0
1.290631047E2,-2.084415436E0,3.101101227E0,1.301393738E1,1.353972609E1
1.292634776E2,-3.010689240E0,1.040635986E0,7.445516968E0,8.098326733E0
1.294638496E2,-1.543590088E0,2.620001678E0,7.833360443E0,8.402893251E0
1.296642226E2,-3.092868347E0,2.533032532E0,1.187435715E1,1.252926359E1
1.298645946E2,-2.321971436E0,2.436932373E-1,7.369774475E0,7.730751164E0
1.300649676E2,-3.076252899E0,1.057850189E0,1.018961060E1,1.069628641E1
1.302653404E2,-7.282505951E0,-3.414250031E0,1.504401581E1,1.705914441E1
1.304657124E2,-3.536845093E0,-8.062234497E-1,5.740562439E0,6.790679390E0
1.306660854E2,-2.913840637E0,1.657503204E0,8.990154877E0,9.594825107E0
1.308664574E2,-2.047442322E0,-2.335892487E0,9.504934387E0,9.999609566E0
1.310668294E2,-1.134490814E0,1.307680664E0,5.391638031E0,5.662760703E0
1.312672009E2,-2.764451294E0,7.508386230E-1,1.221085739E1,1.254236771E1
1.314675729E2,-4.556075592E0,-1.819316711E0,7.171137543E0,8.688668008E0
1.316679449E2,-1.745071106E0,1.344653778E0,5.455405426E0,5.883435672E0
1.318683169E2,-1.897603912E0,1.087338867E0,1.565773956E1,1.580974429E1
1.320686889E2,-6.935078430E-1,1.812730408E0,6.349346466E0,6.639363313E0
1.322690616E2,7.664062500E-2,2.642305298E0,7.843988342E0,8.277427389E0
1.324694326E2,-2.323019257E0,1.989213409E0,1.677666275E1,1.705314638E1
1.326698046E2,9.460327148E-1,6.764433289E-1,7.830366669E0,7.916261469E0
1.328701766E2,-2.593357086E0,3.377576294E0,8.085436249E0,9.138260334E0
1.330705476E2,1.222807159E0,2.258802795E-1,9.426647186E0,9.508309862E0
1.332709188E2,-1.446891174E0,1.982178040E0,8.028255157E0,8.394963057E0
1.334712898E2,-1.316811676E0,1.994452515E0,1.175505524E1,1.199554740E1
1.336716618E2,-5.619314575E-1,1.484013977E0,7.545059967E0,7.710122849E0
1.338720328E2,-2.888992310E-1,2.311942291E0,5.682782593E0,6.141869253E0
1.340724038E2,1.634002075E0,2.562820587E0,1.117905304E1,1.158487113E1
1.342727758E2,8.210426331E-1,1.779948578E0,5.746549988E0,6.071669022E0
1.344731468E2,-6.466552734E-1,1.712588654E0,1.176149185E1,1.190310100E1
1.346735178E2,-2.380799103E0,-1.415755920E0,1.216729797E1,1.247861007E1
1.348738888E2,6.203100586E-1,8.003855896E-1,8.805139618E0,8.863175805E0
1.350742598E2,1.571132813E0,1.417851562E0,1.472308319E1,1.487440553E1
1.352746316E2,4.610412598E-1,2.284100189E0,4.835394745E0,5.367561370E0
1.354750026E2,-1.053958282E0,2.402204590E0,7.129075012E0,7.596388977E0
1.356753736E2,6.487509155E-1,3.743415527E0,1.541599228E1,1.587724332E1
1.358757446E2,-1.180445251E0,1.059796143E0,7.072792053E0,7.248517523E0
1.360761156E2,-6.644682312E-1,3.687581635E0,9.427096252E0,1.014445268E1
1.362764848E2,1.558259583E0,9.148974609E-1,1.195009964E1,1.208594604E1
1.364768558E2,-3.716770935E-1,1.379082184E0,7.004983063E0,7.149111780E0
1.366772268E2,-2.010469208E0,8.089178467E-1,1.527139297E1,1.542438906E1
1.368775968E2,5.553451538E-2,7.461982727E-1,6.849157104E0,6.889909215E0
1.370779678E2,3.200344849E-1,3.368894348E0,6.148164825E0,7.017962804E0
1.372783383E2,1.799857178E0,5.122497711E0,1.182810333E1,1.301474153E1
1.374787093E2,9.430389404E-3,1.595681763E0,5.276527405E0,5.512533961E0
1.376790793E2,-2.843636627E0,4.460274811E0,7.583380280E0,9.245970859E0
1.378794493E2,-3.153941345E-1,2.081122284E0,1.419498138E1,1.435019303E1
1.380798193E2,-6.012995911E-1,6.947053528E-1,6.097570038E0,6.166403903E0
1.382801902E2,6.927593994E-1,5.166655884E0,1.267968246E1,1.370943456E1
1.384805603E2,1.470841370E0,2.621049500E-1,8.101602631E0,8.238206026E0
1.386809303E2,-6.782395935E-1,2.468965759E0,4.621938629E0,5.283759794E0
1.388813003E2,1.862277374E0,3.426374817E0,1.730221985E1,1.773626040E1
1.390816703E2,-3.658392334E-1,2.802172852E-1,8.865314484E0,8.877283423E0
1.392820401E2,-3.619473267E-1,3.697311401E0,6.746320953E0,7.701555938E0
1.394824101E2,3.405418396E0,1.326691132E0,1.396266449E1,1.443305177E1
1.396827801E2,-5.099894714E-1,1.221909027E0,5.441334686E0,5.600113758E0
1.398831491E2,7.604187012E-2,2.667303314E0,1.204964264E1,1.234156299E1
1.400835191E2,-1.399888916E0,-2.176473999E-1,9.710906067E0,9.813702462E0
1.402838890E2,5.888754272E-1,2.368674316E0,4.809498596E0,5.393391237E0
1.404842580E2,1.076261902E-1,2.891537018E0,1.285871017E1,1.318025027E1
1.406846280E2,-1.796264648E-2,1.778002625E0,5.683980103E0,5.955606249E0
1.408849980E2,-2.585124207E-1,3.056194611E0,8.334368591E0,8.880813813E0
1.410853670E2,-1.390458527E0,-7.146139526E-1,1.768138138E1,1.775036043E1
1.412857371E2,-7.458988953E-1,1.603016510E0,5.890101471E0,6.149741656E0
1.414861061E2,-3.397933960E-2,2.753973083E0,1.375789032E1,1.403086128E1
1.416864751E2,2.945424957E0,1.627864838E0,7.297624512E0,8.036217744E0
1.418868441E2,-3.049159241E-1,2.316882019E0,5.665568390E0,6.128587210E0
1.420872141E2,-9.298663330E-1,3.407364349E0,1.090407486E1,1.146183370E1
1.422875836E2,-5.813909912E-1,1.218316498E0,7.547904053E0,7.667670191E0
1.424879526E2,7.134164429E-1,3.062032471E0,3.514242096E0,4.715390056E0
1.426883216E2,-6.318360901E-1,-3.056194611E0,1.434511917E1,1.468066710E1
1.428886906E2,-4.254153442E-1,1.321751404E0,4.847369843E0,5.042320833E0
1.430890596E2,-1.028062134E0,1.612446899E0,1.632505188E1,1.643667289E1
1.432894286E2,-1.189426575E0,-4.492158508E-1,6.883136444E0,6.999578399E0
1.434897976E2,-1.113684082E-1,2.249671783E0,5.441933441E0,5.889657514E0
1.436901666E2,3.337908783E0,5.569168854E0,1.034244278E1,1.221160921E1
1.438905346E2,3.549119568E-1,1.410217438E0,6.376589813E0,6.540303767E0
1.440909036E2,-1.277742920E0,2.691702576E0,1.085647385E1,1.125792672E1
1.442912720E2,-1.565594330E0,-5.535488892E-1,1.323712326E1,1.334087457E1
1.444916400E2,-2.782713318E-1,1.142574005E0,5.577401733E0,5.700028104E0
1.446920090E2,3.357368317E0,1.802401886E0,1.761132706E1,1.801886276E1
1.448923770E2,4.619393921E-1,1.828896790E0,6.391259308E0,6.663816250E0
1.450927460E2,-2.615061951E-1,2.871628418E0,6.329886932E0,6.955724537E0
1.452931141E2,1.727407837E0,1.476379852E0,1.729982483E1,1.744842613E1
1.454934831E2,2.389031982E-1,1.237326965E0,4.550537109E0,4.721804818E0
1.456938511E2,2.299069061E0,3.196752319E0,1.483579880E1,1.534945829E1
1.458942191E2,1.652264099E0,-2.977308655E-1,9.220825195E0,9.372418984E0
1.460945881E2,-1.317560120E0,1.750160522E0,4.755610657E0,5.235920095E0
1.462949565E2,3.313808899E0,3.769461365E0,1.569336548E1,1.647640399E1
1.464953245E2,-2.577639771E-1,1.467398529E0,5.996679840E0,6.178986148E0
1.466956925E2,1.071022797E0,4.440216522E0,1.096185471E1,1.187538931E1
1.468960605E2,1.499731293E0,-1.716330872E0,1.867591324E1,1.881448168E1
1.470964285E2,-1.514849854E-1,1.118773499E0,5.650898895E0,5.762574092E0
1.472967958E2,1.369651794E0,3.741020508E0,1.350746109E1,1.408270874E1
1.474971638E2,-1.740730133E0,8.921447754E-1,8.948541412E0,9.159828443E0
1.476975318E2,1.753303986E0,3.144810333E0,4.716541901E0,5.933774043E0
1.478978988E2,-1.339564362E0,2.661465454E0,1.207059906E1,1.243290765E1
1.480982668E2,3.731739807E-1,2.328557739E0,4.335135040E0,4.935061882E0
1.482986357E2,9.770182800E-1,5.019511871E0,1.147977768E1,1.256723357E1
1.484990027E2,-2.021845551E0,-1.960922241E-2,1.091590027E1,1.110158199E1
1.486993707E2,-4.035607910E-1,1.079405365E0,6.689588928E0,6.788120306E0
1.488997377E2,5.878276062E-1,2.292333069E0,1.490809845E1,1.509475841E1
1.491001057E2,9.397457886E-1,7.720944214E-1,7.898325348E0,7.991420102E0
1.493004723E2,-1.775308228E0,2.137255554E0,5.216951294E0,5.910681975E0
1.495008403E2,-1.213227081E0,3.398682404E0,1.311303131E1,1.360053500E1
1.497012073E2,3.376977539E-1,1.047821045E0,5.905220032E0,6.006961989E0
1.499015743E2,-1.154549103E0,2.722239075E0,1.092952194E1,1.132245641E1
1.501019423E2,2.448907471E-1,-1.277742920E0,1.839689346E1,1.844283838E1
1.503023095E2,-6.048921204E-1,1.910776520E0,6.408922577E0,6.715001860E0
1.505026765E2,7.418572998E-1,2.339485016E0,1.445858322E1,1.466540730E1
1.507030435E2,-1.048270111E0,-1.554367676E0,1.025996429E1,1.042985122E1
1.509034105E2,2.348466339E0,3.224145355E0,4.064198456E0,5.694569036E0
1.511037775E2,2.567610626E0,3.087030487E0,1.464509537E1,1.518555893E1
1.513041445E2,1.603315887E0,1.941762085E0,5.960604858E0,6.470693325E0
1.515045115E2,1.726060638E0,4.008065186E0,1.024634262E1,1.113693894E1
1.517048785E2,-2.389630737E0,-1.684297485E0,1.561702423E1,1.588831769E1
1.519052455E2,-9.731263733E-1,1.171463928E0,5.636678467E0,5.838788129E0
1.521056125E2,1.403631134E0,2.648592224E0,1.306528061E1,1.340472971E1
1.523059780E2,-1.048270111E0,-8.416996765E-1,9.290280762E0,9.387046671E0
1.525063450E2,5.493576050E-1,2.790197754E0,6.085145874E0,6.716844318E0
1.527067120E2,2.084714813E0,2.244133301E0,1.107621689E1,1.149194286E1
1.529070780E2,2.049238586E-1,1.975591736E0,6.424939270E0,6.724938745E0
1.531074450E2,7.887098694E-1,2.850522308E0,5.999673615E0,6.689067511E0
1.533078108E2,6.224955139E0,6.018534393E0,1.167302582E1,1.453383482E1
1.535081778E2,-2.887495422E-1,2.273172913E0,6.918462982E0,7.288060196E0
1.537085438E2,3.574566650E-1,3.960314484E0,9.718839569E0,1.050084324E1
1.539089108E2,-3.927832031E-1,-2.100581818E0,1.499387009E1,1.514539081E1
1.541092768E2,1.047671356E0,2.574196930E0,3.538491669E0,4.499447565E0
1.543096431E2,3.141068115E0,1.882485352E0,1.535432053E1,1.578496813E1
1.545100091E2,5.701643372E-1,1.129102020E0,6.650220795E0,6.769445720E0
1.547103751E2,1.279090118E0,3.162323914E0,1.053733749E1,1.107573228E1
1.549107421E2,-1.105301514E0,-1.861528931E0,1.565818863E1,1.580714562E1
1.551111081E2,7.111711121E-1,7.438032532E-1,5.923332367E0,6.012060708E0
1.553114742E2,8.882528687E-1,2.496957550E0,1.215741852E1,1.244293435E1
1.555118402E2,1.577270050E0,-1.818119202E0,1.063538361E1,1.090434421E1
1.557122062E2,-2.132764893E0,1.887125702E0,8.252788239E0,8.730317475E0
1.559125722E2,-1.465452576E-1,4.220623169E0,1.157677597E1,1.232302225E1
1.561129372E2,-1.066532135E0,6.671626282E-1,7.819888458E0,7.920432581E0
1.563133029E2,-8.797206116E-1,2.953208771E0,6.931036835E0,7.585158008E0
1.565136689E2,2.535128174E0,2.897225189E0,1.192106003E1,1.252726869E1
1.567140349E2,1.000070343E0,2.109413452E0,5.937852173E0,6.380270702E0
1.569143999E2,5.828878784E-1,3.584296417E0,1.018452118E1,1.081255801E1
1.571147659E2,-3.826043701E0,-2.643802185E0,1.446097824E1,1.519039802E1
1.573151327E2,-1.398092651E0,2.179467773E0,4.767585754E0,5.425367892E0
1.575154977E2,1.880090332E-1,1.203946381E0,1.214948502E1,1.221043899E1
1.577158637E2,9.291178894E-1,8.581654358E-1,7.660619659E0,7.764328788E0
1.579162287E2,-1.117426300E0,3.002606049E0,6.240672455E0,7.015003728E0
1.581165947E2,1.367705841E0,3.163970490E0,1.090227859E1,1.143420339E1
1.583169590E2,-5.004093933E-1,1.856439514E0,5.441783752E0,5.771463215E0
1.585173240E2,1.281934204E0,3.114872589E0,9.078171844E0,9.682922626E0
1.587176900E2,3.639531555E0,1.852397919E0,1.242536133E1,1.307926497E1
1.589180550E2,6.759942627E-1,1.481918335E0,6.413413239E0,6.617017422E0
1.591184200E2,1.744622040E0,3.409459991E0,1.335238358E1,1.389079806E1
1.593187846E2,3.614982605E-1,9.430389404E-1,9.543105011E0,9.596398110E0
1.595191496E2,4.569996643E-1,2.889441376E0,9.057215424E0,9.517923691E0
1.597195146E2,1.750609589E0,3.871100006E0,1.027388535E1,1.111767823E1
1.599198796E2,2.002086639E0,3.256029053E0,5.036426697E0,6.322631570E0
1.601202446E2,7.256909180E-1,3.436104584E0,9.678273926E0,1.029574806E1
1.603206102E2,1.375339966E0,5.831872559E-1,1.497396149E1,1.504829525E1
1.605209752E2,5.411247253E-1,1.510808258E0,5.489085388E0,5.718864919E0
1.607213402E2,6.367758179E-1,3.850143585E0,1.417746780E1,1.470475033E1
1.609217052E2,1.877096558E0,-2.507286072E-1,1.119492004E1,1.135396808E1
1.611220702E2,9.804611206E-2,3.178939362E0,4.667743378E0,5.648282637E0
1.613224346E2,8.205935669E-1,3.413950653E0,1.302561310E1,1.349055334E1
1.615227996E2,-3.712280273E-1,1.317560120E0,9.371711426E0,9.471153571E0
1.617231646E2,-9.797126770E-1,2.519410858E0,8.562045135E0,8.978634913E0
1.619235286E2,1.011147308E0,2.936593323E0,1.180026123E1,1.220213770E1
1.621238936E2,2.311493225E0,2.441872101E0,6.076463928E0,6.944721316E0
1.623242576E2,6.662644958E-1,4.032314758E0,8.365653534E0,9.310619192E0
1.625246226E2,-1.805545349E0,-9.572593689E-1,1.507500137E1,1.521288947E1
1.627249866E2,5.688171387E-2,7.583230591E-1,7.216044159E0,7.256003218E0
1.629253516E2,-9.565109253E-2,2.586172028E0,1.149594406E1,1.178363971E1
1.631257156E2,5.072950745E-1,1.235830078E0,7.044949951E0,7.170491203E0
1.633260793E2,-1.337169342E0,1.542242889E0,7.643405457E0,7.911269301E0
1.635264433E2,3.146456909E-1,2.413131866E0,1.136900803E1,1.162654509E1
1.637268083E2,-7.753875732E-1,-3.637435913E-2,9.363179169E0,9.395300587E0
1.639271723E2,1.365460510E0,3.831133118E0,4.051175537E0,5.740565007E0
1.641275363E2,1.194515991E0,3.225791931E-1,1.384291351E1,1.389809988E1
1.643279001E2,4.737648010E-1,1.762734375E0,4.101770325E0,4.489566278E0
1.645282641E2,5.313949585E-1,2.984344025E0,7.910300446E0,8.471218507E0
1.647286281E2,-3.095862122E0,1.853146362E-1,1.405277710E1,1.439094326E1
1.649289921E2,-3.279679871E-1,1.579964447E0,7.590265961E0,7.759896134E0
1.651293561E2,-2.004331970E-1,1.972747650E0,1.266231857E1,1.281663834E1
1.653297206E2,-6.688092041E-1,6.840774536E-2,7.385940857E0,7.416475424E0
1.655300846E2,-8.934919739E-1,2.947969666E0,7.683372345E0,8.277865887E0
1.657304486E2,-2.133962402E0,2.508932648E0,1.310479843E1,1.351237509E1
1.659308116E2,-6.858737183E-1,1.901046753E0,6.218817902E0,6.538967626E0
1.661311756E2,1.218466187E-1,1.270707550E0,1.078417419E1,1.085946395E1
1.663315393E2,4.489015045E0,3.468886414E0,1.080108902E1,1.220032594E1
1.665319023E2,1.105750580E0,1.489103394E0,4.633165283E0,4.990624590E0
1.667322663E2,1.887425079E0,5.621110840E0,1.061083466E1,1.215520763E1
1.669326293E2,2.933898926E-2,1.163680115E0,1.293400360E1,1.298627973E1
1.671329933E2,-3.068618774E-1,2.226470032E0,6.290518799E0,6.679967049E0
1.673333565E2,-4.445755005E-2,2.127675476E0,1.444496155E1,1.460088674E1
1.675337205E2,9.812095642E-1,1.320553894E0,7.220684509E0,7.405735587E0
1.677340835E2,-1.907932434E0,2.697540436E0,6.959477692E0,7.703976916E0
1.679344465E2,1.889969788E0,3.463946686E0,1.247056732E1,1.307998325E1
1.681348095E2,-2.200424194E-1,1.301992493E0,6.026617584E0,6.169580425E0
1.683351731E2,5.066963196E-1,2.569406891E0,1.408570862E1,1.432709950E1
1.685355361E2,3.234773254E-1,-7.451504517E-1,1.282083893E1,1.284654808E1
1.687358991E2,-6.637197876E-1,2.167043610E0,6.192023621E0,6.593766638E0
1.689362621E2,-4.670288086E-2,3.087629242E0,1.205802521E1,1.244715258E1
1.691366251E2,-1.176703033E0,4.025129700E-1,7.741002502E0,7.840265714E0
1.693369884E2,-9.517208862E-1,2.504891052E0,6.634204102E0,7.154922494E0
1.695373514E2,1.375339966E0,2.173629913E0,1.201536392E1,1.228760340E1
1.697377144E2,1.806443481E0,1.860032043E0,7.254963226E0,7.704378539E0
1.699380764E2,6.421646118E-2,2.567011871E0,1.120569763E1,1.149614427E1
1.701384394E2,8.743318176E-1,1.213376770E0,1.428210022E1,1.436019241E1
1.703388021E2,4.102967834E-1,2.418820038E0,6.536756744E0,6.981992736E0
1.705391651E2,2.798430634E0,3.029100952E0,1.355775650E1,1.417107716E1
1.707395281E2,1.600621490E0,1.876497803E0,7.566016388E0,7.957878935E0
1.709398901E2,-1.532812500E-1,3.272794189E0,6.180796967E0,6.995493413E0
1.711402531E2,8.533753967E-1,4.015699310E0,1.334340225E1,1.396067599E1
1.713406154E2,9.798623657E-1,1.361119537E0,8.204887848E0,8.374542450E0
1.715409784E2,1.336271210E0,3.983216858E0,9.145082703E0,1.006400392E1
1.717413404E2,3.368744659E0,2.560575256E0,1.244227615E1,1.314211635E1
1.719417034E2,1.406924286E0,2.289788361E0,5.367089081E0,6.002350530E0
1.721420654E2,1.507215729E0,4.512366486E0,1.457728638E1,1.533396324E1
1.723424281E2,1.444496155E-1,2.126028900E0,8.373886414E0,8.640766068E0
1.725427901E2,4.538562012E-1,2.196681976E0,5.738466797E0,6.161282199E0
1.727431521E2,4.590653687E0,8.529412994E0,1.125105331E1,1.484625165E1
1.729435151E2,2.188598785E0,2.646197205E0,5.237308960E0,6.262725400E0
1.731438771E2,8.045768738E-1,4.605772247E0,8.977880402E0,1.012239193E1
1.733442391E2,8.656498718E-1,2.436782684E0,1.263507523E1,1.289699134E1
1.735446011E2,5.433700562E-1,1.431922302E0,5.880820770E0,6.076981605E0
1.737449631E2,1.197958832E0,2.831212463E0,1.558289520E1,1.588324565E1
1.739453251E2,1.538650360E0,1.839375000E0,7.101831665E0,7.495782702E0
1.741456881E2,-2.294728088E-1,3.322640533E0,5.973029022E0,6.838835689E0
1.743460507E2,4.203259277E-1,4.983436890E0,1.254196884E1,1.350230719E1
1.745464127E2,1.003064117E0,2.297123108E0,6.679260406E0,7.134103432E0
1.747467747E2,6.143225098E-1,5.057981873E0,9.830207977E0,1.107219769E1
1.749471367E2,3.029400330E0,7.908055115E-1,1.592089233E1,1.622582671E1
1.751474977E2,1.507365417E0,3.011287994E0,4.269272003E0,5.437526030E0
1.753478587E2,7.984396362E-1,4.224215698E0,1.308324326E1,1.377144721E1
1.755482207E2,-5.813909912E-1,2.044897614E0,1.048584457E1,1.069918493E1
1.757485827E2,6.738986206E-1,3.367996216E0,4.597239990E0,5.738654319E0
1.759489447E2,1.445843353E0,4.737648010E0,1.154698792E1,1.256458123E1
1.761493067E2,2.371967468E0,2.955005035E0,5.763614502E0,6.897647175E0
1.763496681E2,3.834426270E0,6.287974091E0,8.829538879E0,1.149792154E1
1.765500301E2,1.579066315E0,2.478545837E0,1.680600174E1,1.706101798E1
1.767503921E2,1.222058716E0,2.193688202E0,4.356091461E0,5.028044177E0
1.769507531E2,4.055516510E0,3.280278625E0,1.614033600E1,1.696224891E1
1.771511151E2,2.528392181E0,1.499132538E0,8.704399109E0,9.187313494E0
1.773514760E2,-3.391946411E-1,3.152145081E0,4.469555511E0,5.479780843E0
1.775518380E2,5.046006775E-1,4.596491547E0,1.173589508E1,1.261402353E1
1.777521990E2,5.873785400E-1,2.200124817E0,8.502469025E0,8.802132825E0
1.779525610E2,1.179547119E0,3.951033783E0,7.239245911E0,8.331187233E0
1.781529220E2,3.667074280E0,-8.053253174E-2,1.804542435E1,1.841443073E1
1.783532830E2,9.963281250E-1,1.724414063E0,6.014343109E0,6.335502871E0
1.785536450E2,2.550097046E0,3.823948059E0,1.166135010E1,1.253445890E1
1.787540060E2,8.123606873E-1,2.563569031E0,1.076396622E1,1.109480891E1
1.789543670E2,1.601519623E0,4.280947723E0,3.078198853E0,5.510597671E0
1.791547280E2,7.827223206E-1,2.740800476E0,1.228255829E1,1.260896029E1
1.793550891E2,4.026626587E0,3.958817596E0,4.835095367E0,7.433983161E0
1.795554501E2,2.014361115E0,4.020788727E0,7.644602966E0,8.869292373E0
1.797558111E2,3.707490234E0,1.634600830E0,1.612761246E1,1.662880896E1
1.799561721E2,1.384470978E0,1.981579285E0,4.963378601E0,5.520737585E0
1.801565331E2,3.428320770E0,5.311704254E0,1.235755234E1,1.388080276E1
1.803568946E2,2.942431183E0,2.409539337E0,1.032657578E1,1.100463304E1
1.805572556E2,8.201445007E-1,2.988385620E0,4.404291229E0,5.385245291E0
1.807576166E2,-1.093925171E0,4.302951965E0,1.432955154E1,1.500160376E1
1.809579776E2,-3.951782227E-2,2.234403534E0,8.874445496E0,9.151497346E0
1.811583386E2,1.040486298E0,3.722159729E0,4.002526703E0,5.563928899E0
1.813586977E2,1.906136169E0,5.284760284E0,1.231474136E1,1.353568991E1
1.815590587E2,1.917811890E0,2.826572113E0,4.947661285E0,6.012226256E0
1.817594197E2,4.438270569E-1,3.455713806E0,1.145627655E1,1.197435647E1
1.819597797E2,-7.728428650E-1,6.562353516E-1,1.602702164E1,1.605905830E1
1.821601407E2,1.097667389E0,2.891836395E0,3.210373993E0,4.458036856E0
1.823605015E2,2.025587769E0,4.512665863E0,1.494851440E1,1.574564200E1
1.825608625E2,6.183641052E-1,3.235372009E0,5.025200043E0,6.008547385E0
1.827612225E2,-2.095642090E-1,4.196972351E0,5.745502167E0,7.118236384E0
1.829615835E2,1.434017944E-1,5.248385925E0,1.211475723E1,1.320353974E1
1.831619435E2,5.089416504E-1,2.677482147E0,6.500232697E0,7.048471988E0
1.833623031E2,-6.571334839E-2,4.165537720E0,1.116378479E1,1.191579261E1
1.835626631E2,2.788850555E0,7.479945374E-1,1.348830093E1,1.379389159E1
1.837630241E2,2.662962341E-1,2.504591675E0,5.318589935E0,5.884835770E0
1.839633841E2,6.466552734E-2,4.534819794E0,1.386836060E1,1.459109995E1
1.841637441E2,-1.511856079E-1,2.371967468E0,8.635093231E0,8.956222522E0
1.843641045E2,1.304537201E0,4.207749939E0,4.138593750E0,6.044413544E0
1.845644645E2,6.900650024E-2,4.441713409E0,9.702673187E0,1.067124392E1
1.847648245E2,1.938618622E0,2.764002228E0,5.943839722E0,6.835728280E0
1.849651845E2,1.486708374E0,4.199367371E0,1.241877502E1,1.319359546E1
1.851655445E2,1.245260468E0,1.337468719E0,1.501213211E1,1.512294967E1
1.853659045E2,9.665400696E-1,3.204835510E0,3.780987396E0,5.049855052E0
1.855662645E2,2.539169769E0,4.494852905E0,1.291798691E1,1.391134327E1
1.857666245E2,2.405198364E0,2.013013916E0,8.782686310E0,9.325919955E0
1.859669835E2,-4.590953064E-1,3.097957764E0,5.066663818E0,5.956441308E0
1.861673435E2,-5.498066711E-1,4.955295410E0,1.147753235E1,1.251363212E1
1.863677031E2,-4.460723877E-2,2.346670074E0,7.179370422E0,7.553291329E0
1.865680621E2,-8.262817383E-2,4.311484222E0,8.684340820E0,9.696055853E0
1.867684221E2,2.992726593E0,1.176403656E0,1.616533401E1,1.648206182E1
1.869687821E2,8.422984314E-1,1.685494995E0,6.009852448E0,6.298308223E0
1.871691411E2,-2.174977112E-1,3.780837708E0,1.450693268E1,1.499310291E1
1.873695007E2,-6.985972595E-1,1.459914093E0,9.623787231E0,9.758927603E0
1.875698597E2,4.176315308E-2,2.282154236E0,4.393513641E0,4.951053851E0
1.877702197E2,1.659748535E0,3.787424011E0,1.326810883E1,1.389755582E1
1.879705787E2,2.701432343E0,2.646197205E0,6.553372192E0,7.566160416E0
1.881709377E2,-5.043013000E-1,3.101999359E0,8.740474091E0,9.288304859E0
1.883712980E2,2.034419403E0,3.065026245E0,1.719100113E1,1.758020956E1
1.885716570E2,6.210585022E-1,2.270029449E0,5.130880280E0,5.644880850E0
1.887720160E2,4.837939453E-1,4.642745361E0,1.016461258E1,1.118519065E1
1.889723750E2,2.328258362E0,2.107766876E0,8.826694794E0,9.368778425E0
1.891727340E2,-6.463558960E-1,2.955304413E0,4.593497772E0,5.500165625E0
1.893730936E2,6.821315002E-1,3.964655457E0,1.362047607E1,1.420215353E1
1.895734526E2,-8.309220886E-1,2.183359680E0,7.447762299E0,7.805552784E0
1.897738116E2,-1.676513672E-2,3.240162048E0,6.530619507E0,7.290262157E0
1.899741706E2,3.483256531E0,3.884721680E0,1.292277695E1,1.393636619E1
1.901745296E2,1.447190552E0,2.468067627E0,5.998176727E0,6.645588187E0
1.903748877E2,3.484753418E-1,3.513643341E0,1.182795364E1,1.234372764E1
1.905752467E2,3.585044861E-1,1.398691406E0,1.247595612E1,1.255923342E1
1.907756057E2,1.459465027E-1,2.166444855E0,5.184468842E0,5.620809627E0
1.909759647E2,1.328038330E0,3.643423462E0,1.224304047E1,1.284251767E1
1.911763227E2,1.702110443E0,3.098706207E0,6.227350159E0,7.160939192E0
1.913766827E2,6.167175293E-1,3.592828674E0,7.729925537E0,8.546373921E0
1.915770417E2,1.415905609E0,2.170935516E0,1.676393921E1,1.696311904E1
1.917773997E2,3.275189209E-1,2.087708588E0,6.149661713E0,6.502625237E0
1.919777587E2,1.689237213E0,3.937861176E0,1.421563843E1,1.484737852E1
1.921781167E2,1.249002686E0,1.382225647E0,8.527167664E0,8.728295584E0
1.923784747E2,-5.791456604E-1,3.259471893E0,4.532424774E0,5.612703542E0
1.925788327E2,-6.701564026E-1,3.479664001E0,1.267938309E1,1.316525452E1
1.927791917E2,-1.370250549E0,2.051334229E0,8.248596954E0,8.609582475E0
1.929795497E2,-1.418150940E0,3.990252228E0,1.082264420E1,1.162165618E1
1.931799077E2,6.105802917E-1,5.255570984E-1,1.310719345E1,1.313192822E1
1.933802670E2,4.029620361E-1,2.367327118E0,5.827082520E0,6.302500042E0
1.935806250E2,-4.775070190E-1,3.534899139E0,1.314386719E1,1.361927933E1
1.937809830E2,-8.288264465E-1,1.171463928E0,9.410929871E0,9.519710187E0
1.939813410E2,-1.181044006E-1,2.819536743E0,5.873186646E0,6.515984766E0
1.941816990E2,1.422192535E0,3.406765594E0,1.163934586E1,1.221077620E1
1.943820575E2,4.067042542E-1,2.153421936E0,6.758894806E0,7.105300372E0
1.945824155E2,5.478607178E-2,2.995570679E0,8.827742615E0,9.322311134E0
1.947827735E2,1.428629150E0,3.357518005E0,1.287053558E1,1.337776493E1
1.949831315E2,1.787283325E-1,1.014590149E0,6.902296600E0,6.978756003E0
1.951834895E2,-1.302291870E-2,3.120860138E0,1.193318481E1,1.233453839E1
1.953838475E2,3.143463135E-1,-4.779560852E-1,1.139206009E1,1.140641437E1
1.955842055E2,-6.812333679E-1,2.427651672E0,5.007237396E0,5.606246328E0
1.957845635E2,2.989583130E0,5.526956635E0,1.129416367E1,1.292451120E1
1.959849215E2,-1.369502106E0,1.973945160E0,7.517816620E0,7.892373676E0
1.961852785E2,-1.272054749E0,3.342848511E0,5.835315399E0,6.844243220E0
1.963856361E2,2.162702637E0,2.752775574E0,1.367930374E1,1.412014189E1
1.965859941E2,1.353635101E0,1.870659943E0,5.962850189E0,6.394316147E0
1.967863511E2,8.481362915E-1,3.558400269E0,1.094419144E1,1.153936193E1
1.969867091E2,-1.180445251E0,-3.019221497E-1,1.204245758E1,1.210394120E1
1.971870661E2,-2.017803955E-1,2.605032806E0,4.907095642E0,5.559361374E0
1.973874241E2,7.680528259E-1,2.730921021E0,1.117096985E1,1.152555431E1
1.975877811E2,6.852749634E-1,2.193837891E0,6.024971008E0,6.448472852E0
1.977881391E2,-3.276686096E-1,3.164120178E0,7.595505066E0,8.234726494E0
1.979884961E2,1.062041473E0,4.810845795E0,1.780921555E1,1.847810401E1
1.981888531E2,-1.303788757E-1,1.315165100E0,5.837111664E0,5.984858433E0
1.983892098E2,-1.958377533E0,2.133363647E0,1.191327621E1,1.226020527E1
1.985895678E2,-1.295555878E0,-2.712209930E0,9.489067383E0,9.953740379E0
1.987899248E2,-1.123413849E0,1.518741760E0,5.643115082E0,5.950914471E0
1.989902818E2,2.080373840E0,5.127736816E0,1.235979767E1,1.354201752E1
1.991906388E2,-2.150877228E0,-4.029620361E-1,7.984096985E0,8.278553975E0
1.993909962E2,-1.587299194E0,2.024539948E0,7.053781586E0,7.508269800E0
1.995913532E2,1.147364044E0,2.956352234E0,1.525238251E1,1.557856331E1
1.997917102E2,1.476828918E0,2.419418793E0,4.855453033E0,5.622280241E0
1.999920672E2,3.510200500E-1,2.052831116E0,1.462877930E1,1.477628216E1
2.001924242E2,-2.515518951E0,-3.727249146E-2,1.282428177E1,1.306871944E1
2.003927809E2,-1.774559784E0,-1.842668152E-1,6.473288727E0,6.714646947E0
2.005931379E2,-1.851649475E-1,2.057172089E0,1.453881638E1,1.468480251E1
2.007934949E2,2.065704346E-2,7.048841858E-1,8.311765594E0,8.341626683E0
2.009938519E2,-1.293011169E0,2.789898376E0,6.744524689E0,7.412423633E0
2.011942079E2,-1.090332642E0,2.629881134E0,1.589140366E1,1.614440492E1
2.013945653E2,-5.520520020E-1,2.357747040E0,5.364843750E0,5.886024208E0
2.015949223E2,-1.414558411E0,2.997666321E0,7.597301331E0,8.288906223E0
2.017952783E2,1.634750519E0,-5.351371765E-1,1.637744293E1,1.646752617E1
2.019956353E2,-1.162183228E0,1.315314789E0,5.726940765E0,5.989872568E0
2.021959913E2,-1.819466400E0,3.501368866E0,1.494881378E1,1.546082389E1
2.023963481E2,-2.024090881E0,6.951544189E-1,7.135062561E0,7.449114129E0
2.025967041E2,-9.297166443E-1,2.973865814E0,6.151308289E0,6.895422002E0
2.027970611E2,-1.223405914E0,4.028722229E0,1.169952072E1,1.243407053E1
2.029974171E2,1.006357269E0,1.607806549E0,6.351891174E0,6.629051089E0
2.031977741E2,-4.619393921E-1,4.153113556E0,9.144633636E0,1.005415658E1
2.033981305E2,-2.261197815E0,-5.520520020E-1,1.514296005E1,1.532080338E1
2.035984865E2,4.073030090E-1,1.311722260E0,7.378755798E0,7.505501193E0
2.037988425E2,-7.029382324E-1,1.386267242E0,1.381492172E1,1.390208334E1
2.039991995E2,6.822811890E-1,2.345023499E0,7.525151367E0,7.911545104E0
2.041995555E2,-1.193468170E0,2.377805328E0,5.202581177E0,5.843387318E0
2.043999113E2,-2.250120850E0,3.741768951E0,1.095706467E1,1.179496269E1
2.046002673E2,-1.087189178E0,1.773961029E0,7.010820923E0,7.313038223E0
2.048006233E2,-8.672964478E-1,3.204236755E0,5.895939331E0,6.766198113E0
2.050009793E2,1.872605896E-1,1.179846497E0,1.091545120E1,1.098062745E1
2.052013353E2,6.285429382E-1,3.055895233E0,5.460345154E0,6.288794089E0
2.054016906E2,1.311273193E-1,4.052223358E0,1.155432266E1,1.224500227E1
2.056020466E2,-4.947212219E-1,1.166075134E0,9.155111847E0,9.242324017E0
2.058024026E2,-8.924441528E-1,2.205812988E0,5.418132935E0,5.917620468E0
2.060027586E2,8.238867188E-1,3.900588684E0,1.184786224E1,1.250060883E1
2.062031136E2,2.182311859E0,2.227966919E0,6.753056946E0,7.438420515E0
2.064034705E2,7.882608032E-1,4.247118073E0,7.064409485E0,8.280413540E0
2.066038265E2,5.575904846E-1,5.989045715E-1,1.719085144E1,1.721031572E1
2.068041825E2,-3.424877930E-1,2.077679443E0,5.442382507E0,5.835544286E0
2.070045375E2,1.967658234E0,3.827091522E0,1.073552536E1,1.156589007E1
2.072048935E2,3.001109161E0,1.541344757E0,8.652457123E0,9.286948590E0
2.074052480E2,-6.819818115E-1,2.693498840E0,4.876858521E0,5.612823195E0
2.076056040E2,-1.720073090E0,2.557581482E0,1.496842300E1,1.528245928E1
2.078059590E2,-4.201762390E-1,1.809736633E0,5.603148193E0,5.903131748E0
2.080063150E2,-1.136137390E-1,2.885250092E0,9.430389404E0,9.862546349E0
2.082066700E2,1.396745453E0,-3.421884155E-1,1.621443192E1,1.627807707E1
2.084070265E2,-6.048921204E-1,1.412612457E0,4.879702606E0,5.115942333E0
2.086073815E2,1.594184875E-1,1.813927917E0,1.362676300E1,1.374788779E1
2.088077365E2,-3.745211792E-1,9.610015869E-2,9.877808990E0,9.885373630E0
2.090080925E2,-4.417314148E-1,2.028731232E0,5.008584595E0,5.421881288E0
2.092084475E2,7.336244202E-1,3.522474976E0,1.157363251E1,1.212002492E1
2.094088020E2,1.462907867E0,2.913541260E0,5.753735046E0,6.613190537E0
2.096091570E2,8.077203369E-1,2.906206512E0,7.605683899E0,8.181984845E0
2.098095120E2,1.433568878E0,2.121987305E0,1.567794754E1,1.588571651E1
2.100098670E2,-5.149291992E-2,7.062313843E-1,5.367987213E0,5.414489912E0
2.102102230E2,2.057770844E0,3.506907349E0,1.212313980E1,1.278684240E1
2.104105787E2,2.307900696E0,3.403921509E-1,9.602232056E0,9.881555186E0
2.106109337E2,-3.897894287E-1,2.090852051E0,4.754862213E0,5.208868664E0
2.108112877E2,1.465452576E-1,2.820734253E0,1.299163376E1,1.329513313E1
2.110116427E2,-9.021739197E-1,1.570084991E0,8.128845978E0,8.328098318E0
2.112119977E2,-4.655319214E-2,2.092348938E0,7.590116272E0,7.873370073E0
2.114123527E2,1.827100525E0,3.768712921E0,1.215487381E1,1.285622226E1
2.116127077E2,9.497749329E-1,1.952839050E0,6.196214905E0,6.565724021E0
2.118130627E2,-3.600013733E-1,2.999163208E0,1.101574265E1,1.142239760E1
2.120134167E2,3.269201660E-1,1.871109009E-2,1.181837357E1,1.182290914E1
2.122137717E2,1.784289551E-1,2.199675751E0,5.630391541E0,6.047455597E0
2.124141268E2,1.416204987E0,3.190764771E0,1.257460098E1,1.305018032E1
2.126144817E2,2.157313843E0,1.514999542E0,7.179370422E0,7.648044606E0
2.128148358E2,-2.007325745E-1,3.469485168E0,7.503596191E0,8.269315371E0
2.130151907E2,-6.493496704E-1,2.664758606E0,1.283386185E1,1.312366577E1
2.132155447E2,7.680528259E-1,1.130598907E0,8.030799866E0,8.146281699E0
2.134158991E2,-6.005511475E-1,4.495002594E0,7.379354553E0,8.661442352E0
2.136162531E2,8.321195984E-1,-4.340972900E-2,1.383677628E1,1.386184278E1
2.138166081E2,7.634124756E-2,1.687890015E0,5.669609985E0,5.916018769E0
2.140169621E2,-4.628375244E-1,2.670746155E0,1.393946274E1,1.420055369E1
2.142173161E2,-1.083147583E0,1.129251709E0,1.054676788E1,1.066221041E1
2.144176711E2,-2.815644836E-1,2.822829895E0,3.567082214E0,4.557600542E0
2.146180251E2,1.246158600E0,3.641178131E0,1.250080444E1,1.307980127E1
2.148183791E2,1.948797455E0,2.882555695E0,5.996679840E0,6.933044638E0
2.150187331E2,-8.584648132E-1,2.635120239E0,9.813442841E0,1.019727811E1
2.152190881E2,-1.414259033E0,1.402583313E-1,1.700568649E1,1.706496921E1
2.154194417E2,9.265731812E-1,1.944007416E0,6.634054413E0,6.974839112E0
2.156197957E2,-1.332229614E-1,3.084635468E0,1.617281845E1,1.646489541E1
2.158201497E2,4.758604431E-1,5.177732849E-1,7.968978424E0,7.999946841E0
2.160205037E2,-8.400531006E-1,2.524799652E0,6.595883789E0,7.112382544E0
2.162208577E2,-3.682342529E-2,2.961890717E0,1.379112122E1,1.410564344E1
2.164212120E2,6.436614990E-2,2.232307892E0,5.584736481E0,6.014700581E0
2.166215660E2,3.016227722E-1,3.460803223E0,8.416398010E0,9.105157369E0
2.168219200E2,7.358697510E-1,-1.531315613E0,1.489762024E1,1.499418289E1
2.170222740E2,3.547622681E-2,7.707472229E-1,7.126979370E0,7.168622238E0
2.172226280E2,-4.093986511E-1,1.876647491E0,1.382165771E1,1.395448441E1
2.174229816E2,-6.722520447E-1,-1.059347076E0,1.165940414E1,1.172671497E1
2.176233356E2,1.803749084E-1,2.815345459E0,5.104535065E0,5.832236568E0
2.178236896E2,5.022056580E-1,2.584675140E0,1.181253571E1,1.210242769E1
2.180240436E2,1.510209503E0,2.233206024E0,6.810836792E0,7.324987351E0
2.182243966E2,5.195695496E-1,3.043171692E0,8.130492554E0,8.696881949E0
2.184247500E2,1.280437317E0,8.801696777E-1,1.707139984E1,1.714196345E1
2.186251030E2,5.105882263E-1,1.443448334E0,5.805078278E0,6.003597025E0
2.188254570E2,1.852697296E0,3.024011536E0,1.254002289E1,1.303185739E1
2.190258100E2,1.766326904E0,3.927832031E-1,8.954229584E0,9.135229434E0
2.192261640E2,-7.144642639E-1,2.641257477E0,4.638853455E0,5.385690449E0
2.194265172E2,1.214873657E0,1.987267456E0,1.459988937E1,1.478451621E1
2.196268712E2,-6.975494385E-2,1.241817627E0,8.275391235E0,8.368337760E0
2.198272242E2,9.250762939E-2,3.160677338E0,5.850583649E0,6.650396073E0
2.200275782E2,1.610351257E0,1.219064941E0,1.507290573E1,1.520762433E1
2.202279312E2,1.937720490E0,2.578837280E0,5.003345490E0,5.953035234E0
2.204282846E2,-2.799179077E-2,2.804717560E0,1.292472290E1,1.322556941E1
2.206286376E2,-1.497336273E0,3.600013733E-1,1.224229202E1,1.233877348E1
2.208289916E2,8.017327881E-1,1.858535156E0,4.452940063E0,4.891380541E0
2.210293446E2,-1.227447510E-1,8.026309204E-1,1.587344101E1,1.589419429E1
2.212296976E2,1.501677246E0,1.961371307E0,6.440506897E0,6.897980940E0
2.214300502E2,-2.826123047E-1,3.080893250E0,6.436465302E0,7.141418522E0
2.216304032E2,-2.788700867E-1,3.962260437E0,1.283371216E1,1.343433824E1
2.218307562E2,3.935316467E-1,1.803449707E0,6.922055511E0,7.163947969E0
2.220311092E2,-7.065307617E-1,2.984793091E0,1.069585785E1,1.112697401E1
2.222314622E2,1.186133423E0,-8.128097534E-2,1.218091965E1,1.223880397E1
2.224318153E2,-4.490661621E-4,2.088906097E0,5.560037842E0,5.939490693E0
2.226321683E2,2.083666992E-1,3.357667694E0,1.268611908E1,1.312459395E1
2.228325213E2,-1.500779114E0,5.752537537E-1,6.488257599E0,6.684365452E0
2.230328743E2,1.008901978E-1,2.798879700E0,5.239703979E0,5.941246014E0
2.232332273E2,-7.334747314E-3,3.130739594E0,1.103310654E1,1.146869757E1
2.234335798E2,2.004631348E0,2.748135223E0,5.406008148E0,6.387152585E0
2.236339328E2,4.619393921E-1,3.092718658E0,8.974736938E0,9.503904451E0
2.238342848E2,-3.216810608E-1,2.906954956E-1,1.512005768E1,1.512627273E1
2.240346378E2,7.566764832E-1,1.564546509E0,4.791835327E0,5.097259154E0
2.242349908E2,3.258124695E0,2.298769684E0,1.654404648E1,1.701779047E1
2.244353428E2,-3.598516846E-1,1.347198486E0,7.760911102E0,7.885187261E0
2.246356958E2,-7.860154724E-1,3.433410187E0,4.540058899E0,5.746151811E0
2.248360488E2,-1.506916351E0,3.269950104E0,1.328846649E1,1.376759646E1
2.250364008E2,3.951782227E-1,1.621727600E0,7.705675964E0,7.884390167E0
2.252367538E2,-4.430786133E-1,4.042643280E0,7.141948242E0,8.218680432E0
2.254371062E2,1.002764740E0,4.989125061E-1,1.618090164E1,1.621961864E1
2.256374592E2,5.798941040E-1,1.653760986E0,5.275479584E0,5.558946610E0
2.258378112E2,1.305285645E-1,3.044369202E0,1.141346558E1,1.181323063E1
2.260381632E2,-1.213227081E0,1.403182068E0,8.366701355E0,8.569861809E0
2.262385162E2,-4.781057739E-1,1.626517639E0,5.828429718E0,6.069986634E0
2.264388677E2,3.146456909E-1,4.012705536E0,1.108175537E1,1.179008523E1
2.266392197E2,1.656904449E0,2.773432617E0,5.456004181E0,6.340760401E0
2.268395717E2,-4.567002869E-1,3.220253448E0,1.100526443E1,1.147582035E1
2.270399247E2,-1.955234070E0,-6.671626282E-1,1.436083649E1,1.450867571E1
2.272402767E2,-1.595681763E-1,1.022224274E0,6.697372742E0,6.776813861E0
2.274406290E2,8.551716614E-1,3.610192566E0,1.318188812E1,1.369404920E1
2.276409810E2,8.759783936E-1,1.991458740E0,6.216871948E0,6.586557741E0
2.278413330E2,-3.441343689E-1,3.112178192E0,5.845793610E0,6.631544653E0
2.280416850E2,4.113446045E-1,4.064797211E0,1.283565811E1,1.347018559E1
2.282420370E2,-8.804690552E-1,1.120120697E0,8.008795624E0,8.134537693E0
2.284423895E2,-7.623646545E-1,3.617377625E0,7.874824219E0,8.699395222E0
2.286427415E2,1.510808258E0,4.049079895E-1,1.446995956E1,1.455425099E1
2.288430935E2,3.143463135E-2,1.070274353E0,8.597221985E0,8.663642489E0
2.290434445E2,1.407073975E-2,2.312840424E0,1.193049042E1,1.215261414E1
2.292437965E2,-9.840536499E-1,-6.960525513E-2,1.015293686E1,1.020075161E1
2.294441482E2,-3.231779480E-1,1.657652893E0,6.099665680E0,6.329153064E0
2.296445002E2,8.876541138E-2,1.257085876E0,1.511975830E1,1.517218624E1
2.298448512E2,6.861730957E-1,2.590513000E0,5.714666290E0,6.311814472E0
2.300452032E2,-2.260000305E0,2.424358521E0,8.607700195E0,9.223752938E0
2.302455552E2,6.812333679E-1,2.087558899E0,1.375010651E1,1.392434594E1
2.304459065E2,2.422861633E0,3.213667145E0,6.944808197E0,8.026722613E0
2.306462585E2,-7.170089722E-2,3.237916718E0,1.025143204E1,1.075086529E1
2.308466095E2,6.138734436E-1,-1.989363098E0,1.310659470E1,1.327091672E1
2.310469615E2,-7.304809570E-1,2.177671509E0,5.778583374E0,6.218350379E0
2.312473125E2,-8.541238403E-1,2.622845764E0,1.350940704E1,1.378814440E1
2.314476646E2,-1.376238098E0,7.264393616E-1,9.636510773E0,9.761356736E0
2.316480156E2,-1.155596924E0,1.365011444E0,5.249733124E0,5.546021850E0
2.318483666E2,2.333647156E0,3.680546265E0,1.219409225E1,1.294944847E1
2.320487186E2,1.715881805E0,1.853745117E0,7.344327393E0,7.766580083E0
2.322490696E2,3.592529297E-3,2.282453613E0,1.134101624E1,1.156841634E1
2.324494201E2,-2.965183868E0,-2.642005920E-1,1.365789825E1,1.397856581E1
2.326497711E2,6.502478027E-1,1.461860046E0,4.225413208E0,4.518182575E0
2.328501221E2,6.783892822E-1,1.914219360E0,1.569830521E1,1.582912613E1
2.330504741E2,1.249451752E0,1.258582764E0,8.698411560E0,8.877360189E0
2.332508251E2,-3.433859253E-1,2.802921295E0,5.105433197E0,5.834357703E0
2.334511762E2,-7.367678833E-1,3.593577118E0,1.373319168E1,1.421468175E1
2.336515272E2,-3.570075989E-1,3.450325012E-1,9.139544220E0,9.153019742E0
2.338518782E2,9.952803040E-1,3.602708130E0,7.981851654E0,8.813628344E0
2.340522292E2,7.156617737E-1,-1.091979218E0,1.631143021E1,1.636359819E1
2.342525802E2,-2.335144043E-2,1.120420074E0,6.380631409E0,6.478297894E0
2.344529304E2,1.796114960E0,3.895948334E0,1.277114227E1,1.347243546E1
2.346532814E2,-1.386416931E0,8.105644226E-1,8.666228485E0,8.813778006E0
2.348536324E2,-2.815644836E-1,2.296823730E0,5.172194366E0,5.666239703E0
2.350539834E2,1.523232422E0,2.800675964E0,1.131901199E1,1.175942411E1
2.352543344E2,-1.930984497E-2,1.247954865E0,6.198460236E0,6.322869088E0
2.354546840E2,-4.680766296E-1,1.284927979E0,8.407117310E0,8.517614519E0
2.356550350E2,-6.331832886E-2,-2.203417969E-1,1.844045288E1,1.844187795E1
2.358553860E2,7.249424744E-1,2.209106140E0,5.494025116E0,5.965735789E0
2.360557360E2,2.356848907E0,4.810995483E-1,1.558469147E1,1.576923593E1
2.362560870E2,2.709814911E0,1.982776794E0,8.406668243E0,9.052434569E0
2.364564372E2,-1.257385254E-1,1.485211487E0,5.997278595E0,6.179726036E0
2.366567882E2,-9.604028320E-1,2.091899872E0,1.207449097E1,1.229193845E1
2.368571382E2,1.196012878E0,1.004710693E0,7.549400940E0,7.709302493E0
2.370574892E2,1.694476318E-1,3.034639435E0,7.556136932E0,8.144504548E0
2.372578392E2,2.102228394E0,-1.001118164E0,1.688309143E1,1.704289817E1
2.374581891E2,6.866221619E-1,1.648970947E0,5.081183624E0,5.385998719E0
2.376585401E2,-4.930746460E-1,2.615511017E0,1.215113159E1,1.243921298E1
2.378588901E2,-4.035607910E-1,2.071691895E-1,1.122845032E1,1.123760993E1
2.380592401E2,-4.179309082E-1,2.142494659E0,4.334985352E0,4.853560302E0
2.382595901E2,3.881428528E-1,2.538121948E0,1.226279938E1,1.252872565E1
2.384599401E2,2.130669250E0,1.819316711E0,7.565717010E0,8.067821183E0
2.386602911E2,-2.811154175E-1,2.999163208E0,8.263865204E0,8.795764545E0
2.388606411E2,5.034031677E-1,3.273692322E-1,1.807296707E1,1.808294014E1
2.390609911E2,6.397695923E-1,1.347797241E0,6.110293579E0,6.289797307E0
2.392613411E2,1.815275116E0,3.282224579E0,1.368633911E1,1.419098658E1
2.394616909E2,7.497908020E-1,1.566941528E0,6.546037445E0,6.772599075E0
2.396620409E2,7.195536804E-1,3.035387878E0,5.342240753E0,6.186345717E0
2.398623899E2,-2.173779602E0,3.860921173E0,1.284613632E1,1.358879128E1
2.400627399E2,-6.228547668E-1,1.857637024E-1,8.970994720E0,8.994509575E0
2.402630899E2,9.580078125E-3,2.963836670E0,6.887926483E0,7.498529911E0
2.404634403E2,3.026705933E-1,-5.053491211E-1,1.727886841E1,1.728890629E1
2.406637903E2,-2.481539612E0,8.201445007E-1,6.586303711E0,7.085906605E0
2.408641393E2,2.008523254E0,4.986280975E0,1.349383942E1,1.452518041E1
2.410644893E2,-1.356030121E0,1.949994965E0,1.086051544E1,1.111719811E1
2.412648393E2,-3.128494263E-2,2.468067627E0,4.596790924E0,5.217549555E0
2.414651878E2,-1.197958832E0,3.609294434E0,1.266665955E1,1.322521742E1
2.416655378E2,7.466473389E-1,1.696422272E0,7.581134949E0,7.804417844E0
2.418658878E2,1.434017944E-1,4.178560638E0,7.344028015E0,8.450779879E0
2.420662368E2,-9.020242310E-1,6.547384644E-1,1.718920486E1,1.722530389E1
2.422665875E2,1.300944672E0,2.463726654E0,6.141728210E0,6.744125701E0
2.424669365E2,-6.021977234E-1,3.434008942E0,1.244661713E1,1.292568518E1
2.426672865E2,9.018745422E-1,1.939666443E0,6.008205872E0,6.377634467E0
2.428676355E2,-6.500981140E-1,3.116968231E0,6.077212372E0,6.860803796E0
2.430679845E2,-1.435215454E0,4.027973785E0,1.137843842E1,1.215538058E1
2.432683343E2,5.216651917E-1,1.872605896E0,6.714586945E0,6.990312243E0
2.434686833E2,-1.257385254E-1,3.010689240E0,1.014530273E1,1.058334670E1
2.436690323E2,2.799179077E-1,-1.309626617E0,1.551912781E1,1.557680339E1
2.438693813E2,-1.477427673E-1,1.702260132E0,4.908742218E0,5.197621345E0
2.440697313E2,-1.178499298E0,2.324815521E0,1.285362076E1,1.311522758E1
2.442700799E2,-1.820214844E-1,1.066981201E0,8.100554810E0,8.172549720E0
2.444704289E2,3.986210632E-1,2.580334167E0,4.406536560E0,5.121971068E0
2.446707779E2,-8.509803772E-1,2.691403198E0,1.179053146E1,1.212371440E1
2.448711269E2,2.043849792E0,2.327060852E0,6.297703857E0,7.018091483E0
2.450714759E2,4.939727783E-2,3.772604828E0,1.118384308E1,1.180310693E1
2.452718250E2,-9.839039612E-1,-9.370513916E-2,1.282592834E1,1.286395295E1
2.454721740E2,-1.703457642E-1,1.979483643E0,5.289700012E0,5.650513197E0
2.456725230E2,1.717678070E0,2.797083435E0,1.580772766E1,1.614491708E1
2.458728720E2,1.062789917E0,2.288740540E0,6.731501770E0,7.188947889E0
2.460732210E2,-2.526745605E-1,3.784729614E0,7.017556915E0,7.977100209E0
2.462735701E2,7.250921631E-1,5.960604858E0,1.094853241E1,1.248699046E1
2.464739191E2,4.107458496E-1,1.781146088E0,5.605842590E0,5.896326372E0
2.466742671E2,-9.969268799E-2,3.476819916E0,1.170490952E1,1.221077893E1
2.468746161E2,1.864822083E0,5.797444153E-1,1.534683609E1,1.547058638E1
2.470749651E2,-2.664459229E-1,2.612068176E0,4.210444336E0,4.962029332E0
2.472753142E2,-9.610015869E-2,3.598217468E0,1.367601059E1,1.414177039E1
2.474756622E2,-4.583468628E-1,1.003064117E0,9.446555786E0,9.510711629E0
2.476760112E2,-9.991722107E-1,3.423979797E0,4.964127045E0,6.112654094E0
2.478763592E2,3.229833527E0,5.420078888E0,1.299462753E1,1.444539458E1
2.480767082E2,1.874701538E0,2.241887970E0,6.101312256E0,6.765100056E0
2.482770558E2,-3.999682617E-1,3.939956818E0,9.135352936E0,9.956802077E0
2.484774047E2,5.625302124E-1,1.679956512E0,1.368978195E1,1.380394234E1
2.486777527E2,1.921703796E0,2.237996063E0,4.066593475E0,5.023818702E0
2.488781018E2,2.706072693E0,2.580633545E0,1.483984039E1,1.530370419E1
2.490784498E2,1.589694214E0,2.028282166E0,7.604636078E0,8.029417545E0
2.492787990E2,6.710545349E-1,3.256328430E0,6.553671570E0,7.348782217E0
2.494791470E2,2.345921631E0,4.559518433E0,1.319805450E1,1.415913837E1
2.496794950E2,9.482780457E-1,1.735790405E0,7.541766815E0,7.796822832E0
2.498798430E2,-4.221221924E-2,4.239034882E0,1.032223480E1,1.115884089E1
2.500801920E2,2.833607483E0,-9.725276184E-1,1.152887558E1,1.191176366E1
2.502805406E2,8.512797546E-1,1.892963562E0,5.711672516E0,6.077103849E0
2.504808886E2,1.006357269E0,4.015549622E0,1.244122833E1,1.311188606E1
2.506812366E2,-5.987548828E-3,2.377356262E0,8.769962769E0,9.086479275E0
2.508815846E2,1.528321838E-1,3.166365509E0,5.568869476E0,6.407927548E0
2.510819326E2,1.863774261E0,5.358706512E0,1.086096451E1,1.225356846E1
2.512822801E2,1.911075897E0,2.384241943E0,5.981860657E0,6.717103367E0
2.514826281E2,1.011446686E0,3.787873077E0,1.028675858E1,1.100856071E1
2.516829761E2,8.175997925E-1,1.076710968E0,1.476080475E1,1.482258860E1
2.518833241E2,1.359472961E0,2.327210541E0,4.805007935E0,5.509280977E0
2.520836721E2,3.544030151E0,2.969225464E0,1.620125931E1,1.684806377E1
2.522840205E2,2.555036774E0,2.015109558E0,7.530540161E0,8.203530616E0
2.524843685E2,-4.059558105E-1,3.341501312E0,6.143075409E0,7.004841656E0
2.526847165E2,-1.149609375E0,5.518723755E0,1.133697464E1,1.266115743E1
2.528850645E2,5.824388123E-1,2.335144043E0,5.528752899E0,6.029862460E0
2.530854115E2,5.912704468E-1,4.056863708E0,8.836125183E0,9.740885593E0
2.532857594E2,7.150630188E-1,-9.229806519E-1,1.660496979E1,1.664596738E1
2.534861074E2,4.206253052E-2,1.962119751E0,5.124144287E0,5.487124734E0
2.536864554E2,-8.738827515E-1,3.081192627E0,1.260663437E1,1.300709995E1
2.538868024E2,-6.965016174E-1,1.234033813E0,7.621999969E0,7.752601982E0
2.540871504E2,-4.104464722E-1,3.434308319E0,5.701194305E0,6.668324861E0
2.542874967E2,1.197958832E0,3.369493103E0,1.131257538E1,1.186435632E1
2.544878447E2,9.729766846E-1,1.333277435E0,7.794890442E0,7.967724226E0
2.546881927E2,7.105723572E-1,2.959795074E0,9.358239441E0,9.840830523E0
2.548885397E2,1.445993042E0,9.728269958E-1,1.373932892E1,1.384942047E1
2.550888877E2,3.980223083E-1,1.743723907E0,7.903564453E0,8.103414459E0
2.552892357E2,2.109862518E0,1.547182617E0,1.375564499E1,1.400225207E1
2.554895827E2,1.810485077E0,1.245410156E-1,9.195228424E0,9.372597956E0
2.556899307E2,-4.939727783E-1,2.505340118E0,5.570516052E0,6.127918676E0
2.558902777E2,-2.690505066E0,1.533560944E0,1.587912918E1,1.617829936E1
2.560906247E2,-1.974394226E-1,1.390308838E0,7.554041290E0,7.683455004E0
2.562909724E2,-2.104623413E0,3.182531891E0,6.576274567E0,7.602982055E0
2.564913194E2,7.433541870E-1,1.312620392E0,1.368978195E1,1.377264236E1
2.566916664E2,6.909631348E-1,2.341730347E0,6.950646057E0,7.366994752E0
2.568920134E2,3.164419556E-1,3.722159729E0,1.011686188E1,1.078450290E1
2.570923614E2,-1.096320190E0,1.716630249E0,1.013931519E1,1.034187845E1
2.572927083E2,9.714797974E-2,2.061213684E0,5.541925507E0,5.913626459E0
2.574930553E2,1.739083557E0,4.532125397E0,1.329505280E1,1.415355083E1
2.576934023E2,7.833210754E-1,2.733166351E0,6.771768036E0,7.344428674E0
2.578937493E2,-4.025129700E-1,3.442990265E0,9.425449677E0,1.004267396E1
2.580940962E2,1.928439789E0,5.528004456E0,1.670226746E1,1.769868502E1
2.582944435E2,1.529219971E0,2.361339569E0,6.435417480E0,7.023463279E0
2.584947905E2,1.310075684E0,4.016298065E0,9.577683105E0,1.046799704E1
2.586951375E2,3.189567261E0,1.335971832E0,9.480984192E0,1.009193843E1
2.588954845E2,-7.045848083E-1,3.439697113E0,3.520379333E0,4.972024400E0
2.590958315E2,-1.064286804E-1,4.039649506E0,1.326167221E1,1.386369522E1
2.592961780E2,7.726931763E-1,2.313439178E0,7.265591125E0,7.664063542E0
2.594965240E2,-7.870632935E-1,4.840184784E0,7.096742249E0,8.626158352E0
2.596968710E2,3.397933960E-2,1.863624573E0,1.385339172E1,1.397822283E1
2.598972180E2,5.580395508E-1,1.966011658E0,4.464915161E0,4.910405011E0
2.600975650E2,1.807491302E0,4.772076416E0,1.384051849E1,1.475126063E1
2.602979111E2,-4.287084961E-1,2.276615753E0,7.466323700E0,7.817465053E0
2.604982581E2,-2.078876953E0,1.276096344E0,4.852908325E0,5.431470379E0
2.606986051E2,1.521286469E0,4.900359650E0,1.481020203E1,1.567386108E1
2.608989511E2,-1.093775482E0,2.120640106E0,3.046464844E0,3.869677934E0
2.610992981E2,-1.480571136E0,2.459535370E0,1.173200317E1,1.207813328E1
2.612996453E2,-3.246748352E0,-1.420695648E0,1.420186707E1,1.463737610E1
2.614999913E2,-1.266516266E0,1.646276550E0,4.855153656E0,5.280796053E0
2.617003383E2,-1.648671570E0,2.945574646E0,1.078462326E1,1.130055869E1
2.619006843E2,2.266736298E0,3.028951263E0,6.123316498E0,7.197752714E0
2.621010313E2,-9.184899902E-1,3.576362915E0,7.909402313E0,8.728839586E0
2.623013770E2,-1.869612122E-1,3.983067169E0,1.258956985E1,1.320594744E1
2.625017240E2,6.421646118E-1,2.047142944E0,5.914949799E0,6.292042653E0
2.627020700E2,-3.802093506E-1,4.193379822E0,9.606423340E0,1.048867784E1
2.629024160E2,1.005459137E0,7.210505676E-1,9.940229187E0,1.001693657E1
2.631027630E2,-9.083111572E-1,2.596500549E0,5.558241577E0,6.201684746E0
2.633031094E2,-1.196611633E0,2.694396973E0,1.321901093E1,1.354377733E1
2.635034554E2,-5.474116516E-1,7.837701416E-1,8.189170532E0,8.244784361E0
2.637038014E2,-2.668949890E-1,2.307451630E0,1.027448410E1,1.053378325E1
2.639041484E2,-1.877096558E-1,-5.962101746E-1,1.716660187E1,1.717797780E1
2.641044944E2,9.038204956E-1,1.688339081E0,6.326893158E0,6.610367416E0
2.643048408E2,2.856210480E0,2.910098419E0,1.272174500E1,1.335924425E1
2.645051868E2,-5.025050354E-1,3.838018799E-1,1.040291702E1,1.042211580E1
2.647055328E2,1.637594604E0,3.390000458E0,5.775589600E0,6.894291437E0
2.649058788E2,2.273322601E0,5.590274963E0,1.247386047E1,1.385699697E1
2.651062248E2,-5.800437927E-1,2.098635864E0,3.029550018E0,3.730803748E0
2.653065707E2,5.538482666E-1,4.681215363E0,9.308842163E0,1.043432162E1
2.655069167E2,-8.625064087E-1,-3.189866638E-1,1.534623734E1,1.537376565E1
2.657072617E2,1.600621490E0,1.638792114E0,5.255720673E0,5.733256364E0
2.659076077E2,-4.194277954E-1,1.929487610E0,1.750729340E1,1.761829061E1
2.661079537E2,3.232378235E0,-6.697073364E-1,7.317233734E0,8.027371082E0
2.663083007E2,-1.274449768E0,2.189047852E0,7.166347504E0,7.600834773E0
2.665086467E2,-8.036787415E-1,3.694916382E0,1.218271591E1,1.275605243E1
2.667089927E2,-4.667294312E-1,1.107995911E0,4.884941711E0,5.030720309E0
2.669093387E2,-1.920057220E0,3.129991150E0,1.060260178E1,1.122045582E1
2.671096837E2,-1.009949799E0,-1.761985931E0,1.532662811E1,1.546059903E1
2.673100292E2,1.338217163E-1,2.537972260E0,5.591173096E0,6.141695859E0
2.675103752E2,1.283281403E0,4.846771088E0,1.420051987E1,1.505964029E1
2.677107212E2,-1.028361511E0,1.464554443E0,7.381749573E0,7.595569358E0
2.679110662E2,-3.382965088E-1,2.964285736E0,5.896987152E0,6.608773859E0
2.681114122E2,1.808988190E0,2.335443420E0,1.848999985E1,1.872449809E1
2.683117570E2,7.089257812E-1,1.454375610E0,5.775589600E0,5.997934595E0
2.685121030E2,-9.204359436E-1,3.526366882E0,1.297935928E1,1.348132906E1
2.687124480E2,-5.081932068E-1,7.514373779E-1,1.132080826E1,1.135709550E1
2.689127940E2,-1.069974976E0,1.177002411E0,5.545518036E0,5.769137839E0
2.691131390E2,1.570534058E0,2.975063324E0,1.413166306E1,1.452657839E1
2.693134850E2,-9.669891357E-2,1.841620331E0,4.781955872E0,5.125233466E0
2.695138300E2,-3.206332397E-1,3.520678711E0,9.783505096E0,1.040264179E1
2.697141760E2,2.291734314E-1,2.726130981E0,1.472053848E1,1.497259376E1
2.699145210E2,-1.131646729E-1,1.430275726E0,6.080206146E0,6.247191503E0
2.701148660E2,3.574566650E-1,2.842738495E0,1.238344849E1,1.271057567E1
2.703152123E2,7.761360168E-1,2.134860535E0,7.729925537E0,8.056783814E0
2.705155573E2,-4.101470947E-2,3.300336914E0,5.390141144E0,6.320405644E0
2.707159023E2,-1.001118164E0,4.185146942E0,1.113085327E1,1.193371640E1
2.709162483E2,-3.662882996E-1,2.045196991E0,6.080655212E0,6.425835795E0
2.711165933E2,-7.743397522E-1,4.058061218E0,9.042545929E0,9.941584370E0
2.713169377E2,1.739532623E0,5.381309509E-1,1.371612717E1,1.383646281E1
2.715172827E2,3.855981445E-1,2.330354004E0,7.094646606E0,7.477516044E0
2.717176277E2,7.958949280E-1,3.605701904E0,1.215068253E1,1.269935513E1
2.719179737E2,-5.668711853E-1,1.948348389E0,7.700436859E0,7.963299078E0
2.721183187E2,-4.818479919E-1,2.870281219E0,5.883814545E0,6.564294735E0
2.723186641E2,1.339264984E0,3.896996155E0,1.178379547E1,1.248351094E1
2.725190091E2,1.843266907E0,3.075354767E0,6.368356934E0,7.308311013E0
2.727193541E2,7.134164429E-1,3.931274872E0,7.442373505E0,8.447059164E0
2.729196991E2,1.361269226E0,3.041674805E0,1.352497467E1,1.392945725E1
2.731200441E2,1.128353577E0,2.031575317E0,6.504124603E0,6.906816699E0
2.733203891E2,2.008373566E0,3.695964203E0,1.070588699E1,1.150259675E1
2.735207341E2,1.997745667E0,1.918111267E0,6.220763855E0,6.809408309E0
2.737210791E2,3.007246399E-1,2.872526550E0,5.126688995E0,5.884282806E0
2.739214241E2,1.719923401E-1,3.668571167E0,1.318563034E1,1.368754336E1
2.741217691E2,5.089416504E-3,1.889820099E0,6.392307129E0,6.665811004E0
2.743221137E2,4.692741394E-1,3.616479492E0,8.144413605E0,8.923598775E0
2.745224587E2,1.227746887E0,3.468287659E-1,1.405068146E1,1.410848334E1
2.747228037E2,1.101708984E-1,1.764530640E0,7.574398956E0,7.777996243E0
2.749231487E2,9.939331055E-1,3.525319061E0,1.157632690E1,1.214195710E1
2.751234937E2,4.821473694E-1,1.423539734E0,9.916278992E0,1.002953242E1
2.753238385E2,-3.601510620E-1,2.355501709E0,6.924300842E0,7.322843658E0
2.755241825E2,1.387764130E0,3.897894287E0,1.159249329E1,1.230875175E1
2.757245275E2,1.461710358E0,2.943778381E0,6.921905823E0,7.662584978E0
2.759248725E2,4.863386536E-1,3.364553375E0,7.521109772E0,8.253716551E0
2.761252165E2,1.120569763E0,1.081501007E0,1.593406494E1,1.600998896E1
2.763255616E2,6.230044556E-1,2.001487885E0,7.199428711E0,7.498390632E0
2.765259056E2,-1.311871948E0,5.262456665E0,8.486302643E0,1.007133510E1
2.767262506E2,2.396516418E0,1.264720001E0,9.061257019E0,9.457758000E0
2.769265956E2,-3.230282593E-1,1.831890564E0,4.498146057E0,4.867595736E0
2.771269396E2,-1.172062683E-1,3.996389465E0,1.333501968E1,1.392148038E1
2.773272843E2,-8.713380432E-1,2.514022064E0,6.016887817E0,6.578941855E0
2.775276283E2,3.293151855E-3,3.381917267E0,7.481142883E0,8.210047143E0
2.777279733E2,1.421743469E0,6.403683472E-1,1.519565048E1,1.527544499E1
2.779283173E2,5.134323120E-2,1.836231537E0,7.726931763E0,7.942282849E0
2.781286623E2,-1.408570862E-1,3.295247498E0,1.038450531E1,1.089570775E1
2.783290063E2,-8.077203369E-1,6.728507996E-1,9.581724701E0,9.639221368E0
2.785293503E2,9.610015869E-2,2.652783508E0,5.830375671E0,6.406229472E0
2.787296953E2,3.204536133E0,5.331612854E0,1.159818146E1,1.316103949E1
2.789300393E2,1.337019653E0,3.583697662E0,5.004992065E0,6.299242499E0
2.791303833E2,3.739224243E-1,3.147205353E0,1.032283356E1,1.079840785E1
2.793307274E2,-1.011147308E0,4.924758911E-1,1.188303909E1,1.193614550E1
2.795310724E2,2.671943665E-1,2.095941467E0,6.054010620E0,6.412129759E0
2.797314164E2,7.201524353E-1,3.388802948E0,1.418794601E1,1.460480801E1
2.799317604E2,1.153800659E0,2.211052094E0,6.152655487E0,6.638913832E0
2.801321044E2,4.155358887E-1,3.568130035E0,8.199948120E0,8.952283016E0
2.803324480E2,4.191284180E-1,3.608845367E0,1.295720535E1,1.345691659E1
2.805327930E2,1.239721985E0,1.935624847E0,7.626041565E0,7.964927125E0
2.807331370E2,2.612068176E-1,4.071084137E0,1.289867706E1,1.352840807E1
2.809334810E2,1.988165588E0,5.620811462E-1,8.053552551E0,8.314351828E0
2.811338250E2,2.088457031E0,4.096381531E0,7.389533386E0,8.703286625E0
2.813341688E2,-1.265169067E0,3.199596405E0,1.176867691E1,1.226131421E1
2.815345127E2,-1.119222565E0,1.799408112E0,7.236102448E0,7.540007118E0
2.817348567E2,-2.844085693E-2,3.626957703E0,6.104306030E0,7.100576256E0
2.819352007E2,-2.975811768E-1,6.101312256E-1,1.570953186E1,1.572419174E1
2.821355447E2,-4.448748779E-1,2.496508484E0,5.145549774E0,5.736475464E0
2.823358891E2,-6.649172974E-1,3.826492767E0,1.048105453E1,1.117750715E1
2.825362331E2,-4.925058289E0,-1.639690247E0,7.522007904E0,9.139222405E0
2.827365771E2,4.927752686E-1,2.821931763E0,5.724845123E0,6.401560593E0
2.829369201E2,-2.383343811E0,2.155367889E0,1.424572586E1,1.460365173E1
2.831372641E2,-4.070036316E-1,2.604134674E0,3.180436249E0,4.130659038E0
2.833376082E2,4.655319214E-2,3.857927399E0,8.539292450E0,9.370447511E0
2.835379522E2,5.236111450E-1,4.036955109E0,1.403945480E1,1.461771071E1
2.837382962E2,6.562353516E-1,1.395098877E0,7.107070770E0,7.272372422E0
2.839386392E2,-1.154848480E0,4.164190521E0,1.096320190E1,1.178413992E1
2.841389832E2,8.433462524E-1,1.013991394E0,9.128766632E0,9.223545504E0
2.843393270E2,-8.442443848E-2,3.146456909E0,5.997877350E0,6.773614343E0
2.845396700E2,-1.121168518E-1,3.461252289E0,1.230546066E1,1.278347370E1
2.847400140E2,-1.030906219E0,2.078727264E0,7.433242493E0,7.786974292E0
2.849403580E2,-1.355730743E0,3.509302368E0,8.544980621E0,9.336482356E0
2.851407010E2,2.069446564E0,-2.659968567E-1,1.590667191E1,1.604292911E1
2.853410449E2,3.758683777E-1,1.773961029E0,7.874973907E0,8.081053694E0
2.855413879E2,9.867480469E-1,2.949017487E0,1.370310425E1,1.405152810E1
2.857417319E2,1.648072815E-1,1.776805115E0,8.380323029E0,8.568197705E0
2.859420749E2,-1.263971558E0,2.586022339E0,7.276967468E0,7.825560119E0
2.861424189E2,1.477577362E0,1.276395721E0,1.563663345E1,1.575806862E1
2.863427621E2,5.093907166E-1,1.924697571E0,7.393125916E0,7.656516861E0
2.865431061E2,2.079026642E0,4.019142151E0,1.092188782E1,1.182216092E1
2.867434491E2,4.745132446E-2,1.078956299E0,1.040695862E1,1.046284789E1
2.869437931E2,4.284091187E-1,3.333118744E0,5.150938568E0,6.150234391E0
2.871441361E2,1.216969299E0,2.723586273E0,1.258448044E1,1.293321632E1
2.873444790E2,2.506837006E0,3.008294220E0,5.350323944E0,6.630236209E0
2.875448230E2,2.630030823E-1,2.635569305E0,1.029319519E1,1.062851182E1
2.877451660E2,-2.239343262E-1,-2.275268555E-2,1.550520676E1,1.550684045E1
2.879455090E2,5.251080322E-1,1.663191376E0,5.587131500E0,5.853031898E0
2.881458530E2,1.236877899E0,2.122436371E0,1.585622681E1,1.604538973E1
2.883461960E2,1.136436768E0,1.611249390E0,8.316405945E0,8.546942199E0
2.885465390E2,-1.163680115E0,3.300935669E0,5.997727661E0,6.944282886E0
2.887468820E2,-8.273295593E-1,5.861211548E0,1.102681961E1,1.251515185E1
2.889472250E2,-9.213340759E-1,9.831555176E-1,8.612190857E0,8.716953746E0
2.891475690E2,9.990225220E-1,3.932173004E0,8.518785095E0,9.435556689E0
2.893479126E2,2.194885712E0,6.489006042E-1,1.315015411E1,1.334785183E1
2.895482556E2,5.086422729E-1,1.845661926E0,5.610183563E0,5.927844846E0
2.897485986E2,-7.021897888E-1,1.366807709E0,1.565983521E1,1.573504599E1
2.899489416E2,-9.900411987E-1,7.673043823E-1,6.837182007E0,6.950970823E0
2.901492846E2,-2.778222656E-1,2.286046143E0,5.378315735E0,5.850595895E0
2.903496273E2,2.043849792E0,3.899989929E0,1.131033005E1,1.213716644E1
2.905499703E2,1.692230988E0,2.850372620E0,5.022206268E0,6.017543152E0
2.907503133E2,7.186555481E-1,3.753744049E0,9.587113495E0,1.032084325E1
2.909506563E2,1.286724243E0,1.102158051E0,1.375399841E1,1.385795382E1
2.911509993E2,-1.148112488E-1,1.605860596E0,6.960824890E0,7.144582075E0
2.913513416E2,2.349214783E0,3.473676453E0,1.372016876E1,1.434671632E1
2.915516836E2,1.687890015E0,2.426753540E0,6.378086700E0,7.029800524E0
2.917520266E2,5.297483826E-1,2.968477020E0,8.410859528E0,8.935046008E0
2.919523696E2,1.013242950E0,4.483775940E0,1.086740112E1,1.179963199E1
2.921527126E2,3.730242920E-1,2.010469208E0,5.022655334E0,5.422932801E0
2.923530560E2,-1.005608826E0,3.727847900E0,1.369921234E1,1.423293778E1
2.925533980E2,2.311942291E0,1.256786499E0,1.067969147E1,1.099910902E1
2.927537410E2,-9.779164124E-1,1.382674713E0,7.802674255E0,7.984349404E0
2.929540840E2,-3.251239014E-1,4.063450012E0,1.280721725E1,1.344031790E1
2.931544260E2,-5.999523926E-1,1.968706055E0,6.550378418E0,6.866090869E0
2.933547688E2,-1.158441010E0,3.306174774E0,1.420051987E1,1.462626205E1
2.935551118E2,-1.171164551E0,4.963677979E-1,1.477128296E1,1.482595048E1
2.937554538E2,1.917512512E-1,2.350711670E0,4.495451660E0,5.076583450E0
2.939557968E2,-2.419119415E0,3.504212952E0,1.216535202E1,1.288904329E1
2.941561398E2,-3.332819366E0,1.339564362E0,8.064180450E0,8.827973943E0
2.943564820E2,-2.052382050E0,2.100731506E0,6.300398254E0,6.951284997E0
2.945568250E2,-6.846762085E-1,3.997137909E0,1.216849548E1,1.282646387E1
2.947571670E2,-2.186952209E-1,2.204016724E0,6.638994141E0,6.998697059E0
2.949575100E2,-4.749623108E-1,3.812721405E0,9.965376892E0,1.068041059E1
2.951578520E2,-8.044271851E-1,6.048921204E-1,1.426159286E1,1.429706364E1
2.953581956E2,-2.733316040E-1,2.122586060E0,6.230942688E0,6.588226508E0
2.955585386E2,3.586541748E-1,1.179098053E0,1.141765686E1,1.148397985E1
2.957588806E2,1.151255951E0,1.926643524E0,5.420677643E0,5.866949091E0
2.959592236E2,-9.066645813E-1,2.309846649E0,4.005370789E0,4.711732947E0
2.961595656E2,6.590794373E-1,3.655697937E0,1.708038116E1,1.747964341E1
2.963599067E2,-5.854325867E-1,-1.916015625E-2,5.952970734E0,5.981718731E0
2.965602497E2,-1.414708099E0,3.096161499E0,1.061921722E1,1.115147477E1
2.967605917E2,-5.987548828E-2,2.374063110E-1,1.314955536E1,1.315183459E1
2.969609337E2,1.475182343E0,1.736987915E0,5.526507568E0,5.977924043E0
2.971612757E2,-4.992118835E-1,1.600172424E0,1.496932114E1,1.506287952E1
2.973616168E2,-5.715115356E-1,1.722168732E0,6.770271149E0,7.009212652E0
2.975619598E2,-7.280859375E-1,2.528691559E0,6.620283051E0,7.124081541E0
2.977623018E2,2.877765656E0,1.039288788E0,1.304851547E1,1.340244054E1
2.979626438E2,6.191125488E-1,1.488354950E0,5.129383392E0,5.376715986E0
2.981629858E2,1.192719727E0,2.178270264E0,1.414513504E1,1.436148624E1
2.983633280E2,1.975891113E-1,-8.487350464E-2,1.182136734E1,1.182332317E1
2.985636700E2,-5.159770203E-1,1.377884674E0,4.913981323E0,5.129523458E0
2.987640120E2,1.415007477E0,3.006198578E0,1.398002838E1,1.436943526E1
2.989643540E2,1.515598297E0,1.554816742E0,5.016667786E0,5.466392684E0
2.991646960E2,-2.550695801E-1,2.752775574E0,9.610764313E0,1.000048121E1
2.993650387E2,9.074130249E-1,1.642534332E0,1.512305145E1,1.523902893E1
2.995653807E2,6.563850403E-1,1.540596313E0,6.353388062E0,6.570374280E0
2.997657227E2,1.971699829E0,2.971620483E0,1.278326706E1,1.327139952E1
2.999660647E2,1.263073425E0,8.033793640E-1,8.331374817E0,8.464784653E0
3.001664067E2,-8.451425171E-1,2.410736847E0,6.113137665E0,6.625433580E0
3.003667479E2,5.182223511E-1,2.442321167E0,1.333711533E1,1.356879259E1
3.005670889E2,-6.336323547E-1,1.672921143E0,6.741530914E0,6.974840083E0
3.007674309E2,-1.400487671E0,2.523751831E0,9.408085785E0,9.840872276E0
3.009677729E2,2.891087952E0,2.319726105E0,1.164248932E1,1.221830906E1
3.011681149E2,1.082099762E0,2.501448212E0,6.684349823E0,7.218636686E0
3.013684571E2,1.423390045E0,4.545896759E0,1.158111694E1,1.252251916E1
3.015687981E2,-2.013313293E-1,6.309379578E-1,1.012210098E1,1.014374415E1
3.017691401E2,5.614823914E-1,2.519261169E0,6.695875854E0,7.176119618E0
3.019694821E2,8.161029053E-1,3.310815125E0,1.303893539E1,1.347743881E1
3.021698231E2,1.971250763E0,2.095941467E0,6.717131653E0,7.307438528E0
3.023701650E2,1.405577087E-1,3.305725708E0,6.428232422E0,7.229782223E0
3.025705070E2,-1.077758789E-1,3.553759918E0,1.202150116E1,1.253624008E1
3.027708480E2,-2.076182556E-1,2.499202881E0,5.059179382E0,5.646628764E0
3.029711900E2,9.355545044E-2,3.713477783E0,9.060957642E0,9.792835302E0
3.031715310E2,2.870430908E0,1.281485138E0,1.383932098E1,1.419184213E1
3.033718737E2,8.943901062E-1,2.180216217E0,5.473966827E0,5.959663518E0
3.035722147E2,1.717827759E0,2.835703125E0,1.515822830E1,1.551657274E1
3.037725567E2,8.303233337E-1,2.173330536E0,6.913972321E0,7.294917114E0
3.039728977E2,-6.749464417E-1,2.808908844E0,5.142705688E0,5.898554348E0
3.041732397E2,2.339934082E0,3.235072632E0,1.253298752E1,1.315358364E1
3.043735806E2,2.096839600E0,2.524949341E0,5.769602051E0,6.637801843E0
3.045739216E2,3.975732422E-1,4.250411224E0,8.019872589E0,9.085285708E0
3.047742636E2,2.082918549E0,2.893632660E0,1.378513367E1,1.423873484E1
3.049746046E2,6.894662476E-1,2.090402985E0,5.141358490E0,5.592737743E0
3.051749456E2,1.805994415E0,4.406835938E0,1.055904236E1,1.158340167E1
3.053752875E2,3.168012085E0,1.764830017E0,8.551866302E0,9.288990409E0
3.055756285E2,-1.551972656E0,2.142644348E0,4.780009918E0,5.463335863E0
3.057759695E2,1.800455933E0,3.993994446E0,1.460153595E1,1.524462152E1
3.059763105E2,2.710862732E-1,1.740580444E0,7.002138977E0,7.220322590E0
3.061766525E2,4.484674072E-1,3.439697113E0,5.738915863E0,6.705803049E0
3.063769931E2,1.924398193E0,2.729873199E0,1.283505936E1,1.326251352E1
3.065773341E2,9.571096802E-1,1.942660217E0,5.634283447E0,6.036152551E0
3.067776751E2,1.727856903E0,3.832779694E0,1.059466827E1,1.139836328E1
3.069780161E2,1.110540619E0,2.814147949E-2,1.278206955E1,1.283025309E1
3.071783571E2,5.288502502E-1,2.423909454E0,5.059179382E0,5.634741844E0
3.073786982E2,2.519410858E0,3.099754028E0,1.244227615E1,1.306775199E1
3.075790392E2,3.358266449E0,2.665656738E0,6.891519012E0,8.116447110E0
3.077793802E2,-1.027912445E0,3.368894348E0,6.693630524E0,7.563778336E0
3.079797212E2,2.281405792E0,2.882555695E0,1.577449677E1,1.619718148E1
3.081800622E2,1.457668762E0,1.943708038E0,4.611759796E0,5.212593172E0
3.083804036E2,2.216141510E0,3.498973846E0,9.324559479E0,1.020301478E1
3.085807446E2,2.555785217E0,6.083349609E-1,1.001193008E1,1.035088661E1
3.087810856E2,1.246907043E-1,2.292931824E0,5.044360199E0,5.542441153E0
3.089814266E2,-1.365161133E-1,2.382146301E0,1.422776321E1,1.442645153E1
3.091817676E2,2.254312134E-1,1.842069397E0,5.524860992E0,5.828218242E0
3.093821083E2,1.378633118E-1,3.077749786E0,7.172484741E0,7.806157019E0
3.095824493E2,1.223555603E0,1.827100525E0,1.482591934E1,1.498810425E1
3.097827893E2,-9.984237671E-1,1.385668488E0,4.529281311E0,4.840590498E0
3.099831303E2,5.091661835E0,6.285429382E0,1.502784943E1,1.706657262E1
3.101834713E2,-1.709594879E0,-9.168434143E-1,1.182555862E1,1.198362021E1
3.103838124E2,-8.574169922E-1,1.539698181E0,5.245841217E0,5.533957396E0
3.105841524E2,1.904788971E0,4.038751373E0,1.704715027E1,1.762228890E1
3.107844934E2,6.815327454E-1,6.265969849E-1,6.726262665E0,6.789677467E0
3.109848344E2,2.246827698E-1,3.719165955E0,3.659589844E0,5.222573654E0
3.111851744E2,3.772155762E-2,3.973487091E0,1.442460388E1,1.496192567E1
3.113855150E2,-3.993695068E-1,2.207908630E0,6.639592896E0,7.008462766E0
3.115858550E2,-5.590873718E-1,3.781586151E0,5.960006104E0,7.080582269E0
3.117861960E2,1.741777954E0,1.974693604E0,1.201057388E1,1.229581597E1
3.119865370E2,-3.534150696E-1,2.527344360E0,6.489455109E0,6.973191474E0
3.121868770E2,3.899391174E-1,3.006348267E0,1.299372940E1,1.334268287E1
3.123872181E2,1.829345856E0,7.557783508E-1,9.395811310E0,9.602029855E0
3.125875581E2,1.519939270E0,3.583398285E0,4.702920227E0,6.104786427E0
3.127878991E2,1.282832336E0,3.504512329E0,1.234452942E1,1.289630459E1
3.129882391E2,1.146016846E0,2.378703461E0,6.054160309E0,6.604880151E0
3.131885801E2,-9.333091736E-1,3.071013794E0,9.741143188E0,1.025631817E1
3.133889198E2,-4.875361633E-1,6.903643799E-1,1.582045120E1,1.584301015E1
3.135892607E2,1.086740112E-1,1.357527008E0,5.892496490E0,6.047826428E0
3.137896007E2,9.924362183E-1,1.651815033E0,1.253149063E1,1.267878859E1
3.139899407E2,5.370831299E-1,2.143692169E0,9.966574402E0,1.020864730E1
3.141902818E2,5.414241028E-1,4.132905579E0,9.718390503E0,1.057455259E1
3.143906225E2,-2.513273621E-1,-3.110531616E-1,1.461530731E1,1.462077725E1
3.145909625E2,-3.758683777E-1,3.699407043E0,2.841091919E0,4.679603915E0
3.147913035E2,5.284011841E-1,1.056652679E0,1.364188156E1,1.369294180E1
3.149916435E2,-1.827699280E-1,1.761536865E0,7.835456085E0,8.033105815E0
3.151919835E2,1.779798889E-1,3.207978973E0,8.188122711E0,8.795917204E0
3.153923232E2,6.478527832E-1,-1.109193420E-1,1.265513351E1,1.267219084E1
3.155926642E2,7.622149658E-1,1.125659180E0,5.334606628E0,5.505098375E0
3.157930042E2,6.824308777E-1,2.622546387E0,1.293729675E1,1.321805995E1
3.159933442E2,5.388793945E-2,1.164727936E0,7.420518951E0,7.511564190E0
3.161936842E2,-2.725831604E-1,2.458038483E0,8.607849884E0,8.956078070E0
3.163940242E2,5.490582275E-1,1.162931671E0,1.380174911E1,1.386153504E1
3.165943652E2,5.643264771E-1,1.830393677E0,5.275180206E0,5.612159263E0
3.167947052E2,4.272116089E-1,2.322869568E0,1.315838699E1,1.336867163E1
3.169950452E2,1.679058380E0,1.324894867E0,9.122779083E0,9.370148433E0
3.171953852E2,-6.578819275E-1,2.269430695E0,4.720882874E0,5.279191170E0
3.173957246E2,3.553610229E-1,3.326682129E0,1.359173584E1,1.399744186E1
3.175960646E2,-2.216889954E-1,1.117575989E0,7.662415924E0,7.746659919E0
3.177964046E2,-3.637435913E-2,2.396067352E0,9.890532532E0,1.017669375E1
3.179967446E2,3.259322205E0,1.943558350E0,1.215667007E1,1.273519641E1
3.181970846E2,2.782713318E-1,2.074236603E0,6.478228455E0,6.807887802E0
3.183974246E2,2.417173462E0,4.273014221E0,1.327738953E1,1.415593341E1
3.185977636E2,-1.769320679E-1,1.609752502E0,1.203347626E1,1.214195861E1
3.187981036E2,-6.071374512E-1,1.370998993E0,4.766088867E0,4.996384414E0
3.189984436E2,2.918031921E0,4.177961884E0,1.551343964E1,1.632902585E1
3.191987836E2,1.682501221E0,7.461982727E-1,5.118905182E0,5.439743788E0
3.193991247E2,4.594695282E0,8.887019348E-1,1.177556259E1,1.267142021E1
3.195994647E2,2.456391907E0,4.774172058E0,1.187630310E1,1.303353963E1
3.197998038E2,-2.634521484E-1,1.959575043E0,4.709506531E0,5.107718977E0
3.200001438E2,1.190474396E0,2.961890717E0,1.074720108E1,1.121126028E1
3.202004838E2,2.843337250E0,5.855822754E-1,1.094464050E1,1.132310157E1
3.204008220E2,1.141077118E0,3.517385559E0,6.160439301E0,7.185058840E0
3.206011620E2,2.959795074E0,2.821183319E0,1.500180359E1,1.554906985E1
3.208015020E2,1.996847534E0,3.327580261E0,6.319857788E0,7.416251946E0
3.210018410E2,-3.121009827E-1,3.216960297E0,6.352040863E0,7.127037512E0
3.212021810E2,2.913241882E0,1.966760101E0,1.517184998E1,1.557370076E1
3.214025202E2,1.465003510E0,1.842368774E0,4.887486420E0,5.424765570E0
3.216028602E2,9.136999512E-1,3.824846191E0,1.103415436E1,1.171395998E1
3.218031992E2,-3.583547974E-1,-2.860551453E-1,1.618958359E1,1.619607553E1
3.220035392E2,9.758207703E-1,1.712139587E0,4.960983582E0,5.338071397E0
3.222038782E2,2.618055725E0,2.221380615E0,1.464419724E1,1.504131844E1
3.224042181E2,3.182980957E0,5.330415344E-1,9.985884247E0,1.049444545E1
3.226045571E2,1.589843903E0,2.087409210E0,9.810149689E0,1.015499472E1
3.228048971E2,-5.304968262E-1,3.726201324E0,1.220007980E1,1.276745669E1
3.230052361E2,-2.013313293E-1,1.388662262E0,5.268294525E0,5.451957849E0
3.232055751E2,5.939648438E-1,2.603685608E0,1.105091949E1,1.136902787E1
3.234059153E2,3.308569794E0,1.659748535E0,1.080213684E1,1.141873722E1
3.236062543E2,4.921765137E-1,2.730172577E0,6.073320465E0,6.676923056E0
3.238065933E2,7.399113464E-1,2.882555695E0,1.380983231E1,1.412685614E1
3.240069323E2,9.045689392E-1,2.655777283E0,6.473438416E0,7.055267738E0
3.242072723E2,5.126838684E-1,2.643053741E0,5.372926941E0,6.009735580E0
3.244076115E2,1.889670410E0,2.415526886E0,1.331990112E1,1.366840848E1
3.246079505E2,3.145409088E0,2.617906036E0,5.883814545E0,7.167028948E0
3.248082895E2,2.257305908E-1,3.187621307E0,8.632249146E0,9.204760139E0
3.250086285E2,2.446362762E0,1.563798065E0,1.494282623E1,1.522229322E1
3.252089675E2,3.384461975E-1,1.137933655E0,6.418502655E0,6.527374293E0
3.254093068E2,1.612446899E0,3.082839203E0,1.213661179E1,1.262541992E1
3.256096458E2,2.005679169E0,4.974156189E-1,1.011985565E1,1.032868092E1
3.258099848E2,2.868035889E-1,2.649041290E0,5.675298157E0,6.269663884E0
3.260103238E2,7.152127075E-1,3.177891541E0,1.285436920E1,1.326066859E1
3.262106628E2,-1.718426514E-1,1.762734375E0,7.605833588E0,7.809319236E0
3.264110018E2,5.530998230E-1,3.786825256E0,6.912774811E0,7.901418893E0
3.266113408E2,2.494113464E0,8.220904541E-1,1.342273727E1,1.367721867E1
3.268116788E2,1.308878174E0,1.746867371E0,6.421945496E0,6.782779049E0
3.270120178E2,1.015787659E0,2.455344086E0,1.373768234E1,1.399229986E1
3.272123568E2,5.192701721E-1,7.054829407E-1,1.428269897E1,1.430953660E1
3.274126963E2,2.791544952E0,2.638263702E0,7.105723572E0,8.077404661E0
3.276130353E2,2.819536743E0,3.999233551E0,1.001552261E1,1.114694351E1
3.278133743E2,3.125500488E0,2.615061951E0,8.465346222E0,9.395179028E0
3.280137133E2,-5.849835205E-1,3.032394104E0,5.143903198E0,5.999779982E0
3.282140513E2,1.385069733E0,3.801494751E0,1.283311340E1,1.345580098E1
3.284143901E2,-1.028361511E-1,2.204316101E0,6.300847321E0,6.676096292E0
3.286147291E2,8.328680420E-1,3.668571167E0,7.228917389E0,8.149191997E0
3.288150681E2,1.592837677E0,1.539548492E0,1.463895813E1,1.480562179E1
3.290154061E2,6.521937561E-1,1.195863190E0,6.424190826E0,6.567014028E0
3.292157451E2,-1.777104492E0,1.891316986E0,1.233255432E1,1.260266148E1
3.294160837E2,9.445358276E-2,-5.629792786E-1,1.361299164E1,1.362495536E1
3.296164227E2,7.372169495E-1,1.895208893E0,5.857169952E0,6.200140759E0
3.298167617E2,2.137704620E0,2.716550903E0,1.104328537E1,1.157167151E1
3.300170997E2,1.526824951E-1,3.641926575E-1,9.978549500E0,9.986360616E0
3.302174387E2,-1.901046753E0,2.850222931E0,6.815028076E0,7.627736046E0
3.304177767E2,8.726852417E-2,3.731440430E0,1.055515045E1,1.119564489E1
3.306181157E2,-3.275189209E-1,2.157912598E0,7.084916840E0,7.413494591E0
3.308184537E2,2.745291138E-1,2.586621094E0,8.032147064E0,8.442828991E0
3.310187927E2,2.588117981E0,2.690954132E0,1.234677475E1,1.289893157E1
3.312191307E2,1.410816193E0,2.342478790E0,4.747228088E0,5.478483708E0
3.314194690E2,-8.988807678E-1,2.895428925E0,1.177137131E1,1.215552046E1
3.316198070E2,-1.243913269E0,4.126918030E-1,1.505434433E1,1.511128446E1
3.318201460E2,2.257455597E0,2.578986969E0,3.701502686E0,5.044640888E0
3.320204840E2,8.788224792E-1,2.303859100E0,1.423524765E1,1.444722712E1
3.322208220E2,1.844165039E0,2.467468872E0,8.424032135E0,8.969596688E0
3.324211614E2,-1.122815094E0,3.928430786E0,7.924820251E0,8.916056202E0
3.326214994E2,-1.465452576E-1,1.093775482E0,1.635858215E1,1.639576257E1
3.328218374E2,5.822891235E-1,1.910477142E0,1.986519012E0,2.816956038E0
3.330221764E2,1.526824951E0,2.026934967E0,1.192300598E1,1.219006692E1
3.332225144E2,1.213526459E0,2.204615479E0,8.455766144E0,8.822298847E0
3.334228521E2,7.768844604E-1,2.545307007E0,6.770121460E0,7.274385322E0
3.336231901E2,1.168021088E0,2.127226410E0,1.295466064E1,1.318000751E1
3.338235281E2,1.154998169E0,2.061812439E0,5.332510986E0,5.832732183E0
3.340238671E2,1.997146912E0,4.017196198E0,7.359595642E0,8.619171021E0
3.342242051E2,5.166356506E0,7.364685059E-2,1.443568085E1,1.533249963E1
3.344245432E2,6.692582703E-1,9.764195251E-1,7.643106079E0,7.734233786E0
3.346248813E2,1.767524414E0,2.908900909E0,1.258897110E1,1.304101378E1
3.348252193E2,-8.376580811E-1,2.763253784E-1,1.044857208E1,1.048573723E1
3.350255573E2,9.515711975E-1,1.236428833E0,5.072801056E0,5.307311424E0
3.352258953E2,1.329235840E-1,2.342179413E0,1.326391754E1,1.346978031E1
3.354262331E2,1.986668701E0,1.252894592E0,6.065836029E0,6.504687857E0
3.356265711E2,3.406915283E-1,4.089046783E0,6.355034637E0,7.564577950E0
3.358269091E2,-1.246607666E0,-1.347348175E0,1.618284760E1,1.628661825E1
3.360272471E2,-2.085313568E0,-1.688488770E-1,7.228318634E0,7.525000525E0
3.362275851E2,-4.812492371E-1,2.321522369E0,9.500443726E0,9.791807694E0
3.364279232E2,2.119891663E0,1.538350983E0,1.278431488E1,1.304987247E1
3.366282612E2,6.382727051E-1,1.567240906E0,7.025789795E0,7.226711447E0
3.368285992E2,3.959266663E-1,6.647676086E-1,1.605157059E1,1.607020822E1
3.370289372E2,1.320853271E0,1.376088409E0,7.776478729E0,8.006990327E0
