"time","Gyroscope x","Gyroscope y","Gyroscope z","abs Gyroscope"
2.017600420E-1,-2.166057974E-1,-3.001336455E-1,8.467038162E-3,3.702296144E-1
4.021070418E-1,-5.593296140E-2,6.519441307E-2,1.580095440E-1,1.798494472E-1
6.024530418E-1,-1.761497557E-1,-9.928810410E-3,2.070442140E-1,2.720195292E-1
8.027990418E-1,-4.958680272E-1,7.079136372E-2,1.723891348E-1,5.297306215E-1
1.003145042E0,-1.894239038E-1,1.659300774E-1,2.353663892E-1,3.446905033E-1
1.203492250E0,-2.751624882E-1,-7.217036486E-1,1.814278215E-1,7.934019194E-1
1.403838250E0,5.182595253E-1,-5.743080974E-1,5.827250481E-1,9.684994620E-1
1.604184250E0,-9.416348487E-2,-2.726833224E-1,1.917674184E0,1.939251720E0
1.804530250E0,1.237768233E-1,-2.031359673E-1,7.812145352E-1,8.166278670E-1
2.004876250E0,1.219789237E-1,-1.527628154E-1,7.017290592E-1,7.284497293E-1
2.205223292E0,4.007608443E-2,4.520066381E-1,1.179967403E0,1.264214842E0
2.405569292E0,1.102045774E-1,3.366344869E-1,7.174246907E-1,8.001037517E-1
2.605915292E0,4.799560010E-1,3.045854867E-1,-1.150145233E-1,5.799641559E-1
2.806261292E0,9.000181407E-2,-2.643226087E-1,5.090440810E-2,2.838274595E-1
3.006608292E0,-3.157237768E-1,-1.424554586E-1,-3.281044364E-1,4.771033244E-1
3.206954000E0,-2.327813208E-1,-8.732540160E-2,2.544732392E-1,3.557660728E-1
3.407300000E0,-1.897925735E-1,2.107430696E-1,4.193452001E-1,5.062452559E-1
3.607646000E0,5.340810418E-1,-1.826599538E-1,4.997159541E-2,5.666607259E-1
3.807992000E0,-1.864220202E-1,-2.730304599E-1,-4.546341300E-1,5.621307622E-1
4.008339000E0,-3.983027339E-1,3.335166276E-1,-2.775719166E-1,5.890030370E-1
4.208684875E0,3.270089626E-2,7.282848656E-2,3.066085279E-1,3.168313849E-1
4.409030875E0,4.839135110E-1,5.607895255E-1,5.728797317E-1,9.364018181E-1
4.609376875E0,-5.435141549E-2,1.277279947E-2,2.210310251E-1,2.279735397E-1
4.809722875E0,4.993504286E-2,-1.608368158E-1,-3.382801712E-1,3.778828708E-1
5.010068875E0,6.991527081E-1,-2.302412540E-1,5.146762133E-1,8.981743420E-1
5.210416375E0,-3.555266857E-1,2.013522536E-1,7.651810534E-3,4.086569521E-1
5.410762375E0,2.061250210E-1,2.321810275E-1,8.012246490E-1,8.592767260E-1
5.611108375E0,-3.161350489E-1,3.932875693E-1,6.967277527E-1,8.602592880E-1
5.811454375E0,3.401637077E-1,6.903466582E-2,-3.692407906E-2,3.490566154E-1
6.011800375E0,-1.303886529E-2,-1.255279686E-2,-9.466553330E-1,9.468283394E-1
6.212146250E0,5.978632346E-2,-4.226033390E-1,-3.035033941E-1,5.237196739E-1
6.412492250E0,8.126744628E-1,-5.848937631E-1,-4.696482420E-2,1.002370287E0
6.612839250E0,-3.909663111E-2,7.566557527E-1,7.878223658E-1,1.093032733E0
6.813185250E0,8.426074386E-1,-8.039087057E-1,1.154017001E-1,1.170288022E0
7.013531250E0,-5.500313640E-1,-6.289337277E-1,-6.676397920E-1,1.069502233E0
7.213876917E0,-6.715868711E-1,-6.233473420E-1,-1.332669556E-1,9.259324574E-1
7.414222917E0,-8.194127679E-2,7.872868180E-1,-1.136723086E-1,7.996601156E-1
7.614568917E0,1.029189453E-1,1.708572209E-1,3.845553100E-1,4.332058237E-1
7.814914917E0,1.642187387E-1,-2.175878435E-1,3.313679993E-1,4.290885861E-1
8.015260917E0,7.732231617E-1,7.757019252E-2,2.479555607E-1,8.157040840E-1
8.215607625E0,-6.605523229E-1,-8.734954000E-1,-6.368496418E-1,1.266846893E0
8.415953625E0,-3.174958527E-1,5.526134968E-1,-1.063395813E-1,6.461372918E-1
8.616299625E0,-5.715420246E-1,-2.606277764E-1,3.923577368E-1,7.406292712E-1
8.816645625E0,4.590375721E-1,3.342767656E-1,2.998274565E-1,6.421471423E-1
9.016991625E0,5.177626610E-1,-1.874564588E-1,-2.279106677E-1,5.959541673E-1
9.217337375E0,-3.473948836E-1,-1.690568179E-1,6.923986226E-2,3.925016833E-1
9.417683375E0,-1.296273917E-1,2.257356793E-1,-1.548296213E-1,3.028730249E-1
9.618028375E0,8.219848871E-1,6.005376577E-1,1.301832438E0,1.652595634E0
9.818374375E0,-4.892328382E-1,3.109560013E-1,4.771913290E-1,7.508355140E-1
1.001872038E1,4.075168073E-2,1.255173683E-1,-3.306137323E-1,3.559785798E-1
1.021906554E1,2.459379286E-1,4.342001379E-1,-1.111052483E-1,5.112334111E-1
1.041941154E1,-1.963739246E-1,6.612793356E-2,-2.937362194E-1,3.594670895E-1
1.061975754E1,5.042764544E-1,3.855051696E-1,4.542556405E-1,7.805492715E-1
1.082010254E1,-8.389025182E-2,-2.672317810E-2,8.409714699E-1,8.455676884E-1
1.102044854E1,2.191685140E-1,6.939843893E-1,7.610870004E-1,1.053044440E0
1.122079450E1,-1.404695392E0,-4.786227643E-1,-8.407157660E-1,1.705594293E0
1.142114050E1,-1.612818241E-1,1.859280653E-2,-4.756385833E-2,1.691739929E-1
1.162148550E1,-2.217583060E-1,3.004974127E-1,-1.187107265E-1,3.918771209E-1
1.182183150E1,1.147453070E0,-8.797690272E-1,5.651950091E-2,1.447009517E0
1.202217750E1,-9.528953582E-2,2.083510906E-1,2.677755654E-1,3.524117279E-1
1.222252325E1,5.007966161E-1,6.299199462E-1,5.487888679E-2,8.066028028E-1
1.242286925E1,-2.866354883E-1,-4.546034038E-1,-2.442218959E-1,5.903121990E-1
1.262321425E1,-3.293921947E-1,3.502000868E-2,-2.975570858E-1,4.452705225E-1
1.282356025E1,3.774594367E-1,-7.522277236E-1,-3.043209314E-1,8.949488275E-1
1.302390525E1,-2.630167305E-1,5.613775253E-1,3.839934170E-1,7.292279965E-1
1.322425150E1,3.360883594E-1,-2.875804007E-1,-6.487523317E-1,7.851989939E-1
1.342459650E1,5.916570872E-2,3.505531251E-1,7.420969009E-2,3.631737225E-1
1.362494250E1,-1.687826812E-1,-1.822047532E-1,-2.419038117E-1,3.467039366E-1
1.382528750E1,9.842199683E-1,-1.125337407E-1,7.732568979E-1,1.256693685E0
1.402563250E1,-1.393533796E-1,-3.046784736E-2,2.909809649E-1,3.240641542E-1
1.422597854E1,3.242716789E-1,-2.226803005E-1,3.306464255E-1,5.138732301E-1
1.442632354E1,8.586041629E-2,-2.817121148E-1,-8.515519500E-1,9.010407595E-1
1.462666854E1,-2.017233372E-1,4.386274517E-1,-3.733759224E-1,6.103244429E-1
1.482701354E1,-3.418963403E-2,-1.337194592E-1,-1.413620412E-1,1.975678403E-1
1.502735954E1,-1.563031524E-1,5.321143866E-1,3.650743067E-1,6.639696117E-1
1.522770417E1,2.328374684E-1,-6.542325765E-2,3.751149774E-1,4.463235772E-1
1.542804917E1,6.558496356E-1,3.698329329E-1,3.671240211E-1,8.376724835E-1
1.562839417E1,9.734078497E-2,-3.384627402E-1,2.412836999E-2,3.530076956E-1
1.582873917E1,-3.688815236E-1,-2.089697123E-1,-3.016711473E-1,5.203339315E-1
1.602908417E1,8.575970680E-2,-1.832293123E-1,1.673113704E-1,2.625277183E-1
1.622943050E1,-1.033942029E-1,1.737705618E-1,4.405872822E-1,4.847718253E-1
1.642977550E1,3.829092085E-1,-1.825696826E-1,-3.308745623E-1,5.379861773E-1
1.663012050E1,6.436079741E-2,5.854626372E-2,5.094948038E-2,1.008257248E-1
1.683046550E1,-8.489407599E-2,-2.017451823E-2,-3.870987892E-1,3.968116530E-1
1.703081050E1,2.576443553E-1,6.802680343E-2,5.156107545E-1,5.803987508E-1
1.723115479E1,2.344438136E-1,-8.029436320E-2,5.788305998E-1,6.296474805E-1
1.743149879E1,-2.273213565E-1,3.725557923E-1,-4.828960449E-2,4.390953239E-1
1.763184379E1,-1.425382644E-1,-4.157543480E-1,-9.267673492E-1,1.025702956E0
1.783218879E1,-4.501802325E-1,-1.375334710E-1,-5.011386275E-1,6.875446323E-1
1.803253379E1,4.523610771E-1,1.023881361E-1,7.195185125E-2,4.693516202E-1
1.823287900E1,-5.335063338E-1,2.225171179E-1,5.720996857E-1,8.132901858E-1
1.843322400E1,3.802401125E-1,1.186226383E-1,4.085520506E-1,5.705862350E-1
1.863356800E1,-1.365991592E0,-4.970007539E-1,-9.327152371E-1,1.727107551E0
1.883391300E1,-2.814988047E-2,5.541149154E-2,-4.000797868E-1,4.048786052E-1
1.903425800E1,4.153736532E-1,-2.618477121E-2,1.345849335E-1,4.374174417E-1
1.923460188E1,2.742554247E-1,-2.414616644E-1,3.150596619E-1,4.824752470E-1
1.943494688E1,-6.280164421E-2,2.776066661E-1,6.467436552E-1,7.066023373E-1
1.963529188E1,5.881176591E-1,6.364699602E-1,-5.444892868E-2,8.682978043E-1
1.983563588E1,-3.001847267E-1,-5.770362020E-1,-3.159748018E-1,7.231332684E-1
2.003598088E1,-6.627529860E-1,-6.999153178E-3,-4.577298462E-1,8.054856427E-1
2.023632538E1,-1.800097991E-3,-3.473727405E-1,-5.212235264E-4,3.473777956E-1
2.043667038E1,-1.461992711E-1,5.794577301E-2,3.993438780E-1,4.291939799E-1
2.063701438E1,9.892387688E-2,-5.241145492E-1,-7.568805218E-1,9.259320268E-1
2.083735938E1,1.542668790E-1,2.680136561E-1,1.119748279E-1,3.288889659E-1
2.103770338E1,-3.534713089E-1,-9.417454153E-2,-3.506775796E-1,5.067401458E-1
2.123804675E1,7.673888206E-1,4.640647173E-1,7.732401490E-1,1.184120767E0
2.143839175E1,-7.988256961E-2,-2.075143009E-1,5.386968851E-1,5.827844748E-1
2.163873575E1,5.464574695E-2,1.764882356E-1,2.692688406E-1,3.265577490E-1
2.183907975E1,4.039843380E-2,-5.298930407E-1,-9.446347356E-1,1.083860439E0
2.203942475E1,-2.980961204E-1,2.524482310E-1,-4.672642350E-1,6.090379887E-1
2.223976938E1,2.547873855E-1,4.628351424E-3,2.639550865E-1,3.668927924E-1
2.244011338E1,2.045927644E-1,3.183678687E-1,6.495302320E-1,7.517352069E-1
2.264045738E1,3.341482878E-1,-4.416837916E-2,3.006170690E-1,4.516376270E-1
2.284080138E1,-1.561147422E-1,3.181103766E-1,5.606241152E-2,3.587603914E-1
2.304114638E1,-1.604498327E-1,-1.684571654E-1,-1.949391961E-1,3.035181305E-1
2.324149038E1,-6.359698772E-1,-6.022521853E-1,-7.384421229E-1,1.145627404E0
2.344183438E1,4.599777162E-1,-7.982545495E-1,-4.361438155E-1,1.019319014E0
2.364217838E1,1.130581424E-1,-1.416311264E-1,3.653856814E-1,4.078580828E-1
2.384252238E1,3.236519694E-1,-2.530644536E-1,-1.007102609E0,1.087680045E0
2.404286638E1,-7.834110856E-1,-2.713808715E-1,-1.752983779E-1,8.474137288E-1
2.424320963E1,-5.648859739E-1,9.461450577E-2,-2.229734212E-1,6.146260772E-1
2.444355263E1,-5.055724382E-1,6.027187109E-1,7.658633590E-1,1.097916217E0
2.464389663E1,1.056986094E0,6.985178590E-2,1.033542395E0,1.479969174E0
2.484424063E1,-9.388213158E-1,-1.967122555E-1,-2.585884035E-1,9.934531377E-1
2.504458463E1,9.621185660E-1,1.231363416E-1,-1.302977502E-1,9.786788020E-1
2.524492888E1,-2.534134090E-1,1.019399762E-1,-6.037087440E-1,6.626268650E-1
2.544527188E1,6.807560325E-1,4.027816951E-1,4.813578129E-1,9.259412582E-1
2.564561588E1,1.690991106E-3,6.845836639E-1,5.992527604E-1,9.098140048E-1
2.584595988E1,-8.471880853E-2,4.291252196E-1,3.116283417E-1,5.370641991E-1
2.604630388E1,-2.026812881E-1,1.797915250E-1,-5.847108960E-1,6.444311670E-1
2.624664704E1,1.767539233E-1,2.115598619E-1,-1.873663068E-1,3.333251528E-1
2.644699104E1,-5.804920197E-1,-3.978242278E-1,-6.846211553E-1,9.818050862E-1
2.664733404E1,1.150852323E0,-6.438402534E-1,6.825118065E-1,1.484861511E0
2.684767804E1,-2.277647704E-2,4.865985215E-1,4.167130291E-1,6.410511974E-1
2.704802104E1,1.724752486E-1,1.787373573E-1,-1.530169398E-1,2.917343622E-1
2.724836450E1,-1.612913907E-1,-2.948679626E-1,-3.807309866E-1,5.078563894E-1
2.744870750E1,-5.502996594E-2,3.500200436E-2,4.847956076E-2,8.126318522E-2
2.764905150E1,1.050719857E0,-9.030233622E-1,7.205422968E-2,1.387319438E0
2.784939450E1,1.213211194E-1,4.297404289E-1,7.679717541E-1,8.883559339E-1
2.804973750E1,2.232344300E-1,-4.151178598E-1,-9.974265099E-1,1.103184523E0
2.825008175E1,-2.508052588E-1,1.042797267E-1,2.115797997E-1,3.443015406E-1
2.845042475E1,-3.601430357E-1,7.497736812E-2,-5.779421926E-1,6.850852427E-1
2.865076775E1,1.842786670E-1,7.302144170E-1,9.226236343E-1,1.190968552E0
2.885111075E1,3.324742019E-1,1.256434470E-1,7.102242112E-1,7.941938056E-1
2.905145475E1,-9.664350003E-2,3.302538097E-1,3.334919214E-1,4.791914091E-1
2.925179842E1,5.034846663E-1,-2.710829973E-1,-9.348563552E-1,1.095873718E0
2.945214142E1,-4.862935245E-1,-1.197751239E-1,-6.893633604E-1,8.520852745E-1
2.965248442E1,9.614696726E-3,8.612795174E-2,3.164730668E-1,3.281244710E-1
2.985282742E1,3.498837054E-1,-1.795847118E-1,7.591570020E-1,8.549787305E-1
3.005317042E1,-3.448268399E-2,5.931671262E-1,7.283191085E-1,9.399388378E-1
3.025351275E1,-1.864155531E-1,3.884157240E-1,-3.074060678E-1,5.292598829E-1
3.045385575E1,1.011199038E-2,-3.300531209E-1,-3.361377120E-1,4.711962185E-1
3.065419875E1,-9.875162244E-1,9.313378483E-2,-1.069748044E0,1.458843060E0
3.085454175E1,2.368015498E-1,-4.527423680E-1,1.853975654E-1,5.435281805E-1
3.105488475E1,1.671473831E-1,2.206697613E-1,9.066637158E-1,9.479833779E-1
3.125522704E1,1.058182493E-1,-1.896304190E-1,-6.165706515E-1,6.536945510E-1
3.145557004E1,9.140696377E-2,8.118863702E-1,2.818384171E-1,8.642613056E-1
3.165591304E1,-4.427137673E-1,-1.805145591E-1,-4.824749529E-1,6.792371206E-1
3.185625604E1,5.048046112E-1,8.159141541E-1,5.268701315E-1,1.094593869E0
3.205659804E1,4.340759218E-1,-3.785639629E-2,6.840648651E-1,8.110485511E-1
3.225694100E1,-3.344321623E-2,2.317096889E-1,1.794402450E-1,2.949688631E-1
3.245728300E1,-6.589217186E-1,-1.075054526E0,-1.044548512E0,1.637376456E0
3.265762600E1,-9.768499434E-2,1.902177557E-2,-2.147217244E-1,2.366634847E-1
3.285796900E1,-3.169904649E-1,1.118030429E0,1.578450948E-1,1.172770254E0
3.305831100E1,7.983345389E-1,-7.546194196E-1,8.126921654E-1,1.366476147E0
3.325865392E1,4.224433303E-1,3.590260744E-1,7.163124084E-1,9.057933296E-1
3.345899592E1,-4.180546850E-2,1.316020340E-1,-1.597658247E-1,2.111679693E-1
3.365933792E1,1.396384686E-1,-2.113840133E-1,-4.524248242E-1,5.185270722E-1
3.385968092E1,-9.308165312E-1,-5.028485060E-1,-5.965932012E-1,1.214577903E0
3.406002292E1,-3.754195198E-2,-2.341846377E-2,-1.108340397E-1,1.193398801E-1
3.426036488E1,-2.474590540E-1,4.063295424E-1,2.355806977E-1,5.308841169E-1
3.446070688E1,2.780611217E-1,-5.474674702E-1,-8.164823651E-1,1.021607591E0
3.466104988E1,-9.130240232E-2,-4.166585803E-1,-1.418620944E-1,4.495168017E-1
3.486139188E1,-2.198927999E-1,5.013145208E-1,-4.352993891E-2,5.491483841E-1
3.506173388E1,-4.087788761E-1,6.705042720E-1,4.693544805E-1,9.148605231E-1
3.526207538E1,1.506187320E-1,-1.522825956E-1,4.539536238E-1,5.019460966E-1
3.546241738E1,1.187948361E-1,-3.510764241E-2,-4.179569334E-2,1.307349977E-1
3.566275938E1,-2.222647369E-1,2.200061977E-1,-4.872196019E-1,5.789536084E-1
3.586310138E1,-1.363569349E-1,-3.520690650E-2,-5.739762783E-1,5.910004298E-1
3.606344338E1,1.030561998E-1,-5.035804510E-1,2.841871232E-2,5.148023642E-1
3.626378612E1,-2.357783355E-2,-1.622619927E-1,3.990115225E-1,4.313873707E-1
3.646412812E1,-1.814866811E-1,4.455605149E-1,2.834366560E-1,5.583886871E-1
3.666447013E1,-3.595563471E-1,-3.941506743E-1,-2.708861530E-1,5.983434037E-1
3.686481213E1,2.143890560E-1,3.194105327E-1,-3.408757746E-1,5.139864292E-1
3.706515413E1,-3.131942749E-1,-5.500820875E-1,-4.607419968E-1,7.829202670E-1
3.726549554E1,1.511270404E0,-4.092478454E-1,5.680855513E-1,1.665575944E0
3.746583754E1,2.019777894E-1,2.694436312E-1,5.846120119E-1,6.746599901E-1
3.766617954E1,1.793646216E-1,9.659752846E-1,1.975284666E-1,1.002146403E0
3.786652154E1,-6.062248945E-1,-1.095427155E0,-5.456998348E-1,1.365744334E0
3.806686254E1,-9.979678392E-1,-3.547456563E-1,-8.383849859E-1,1.350804824E0
3.826720454E1,5.785734057E-1,-8.280960917E-1,-1.608680487E-1,1.022921723E0
3.846754554E1,-3.150922954E-1,3.999114037E-1,5.123344660E-1,7.222872631E-1
3.866788754E1,4.211644232E-1,1.182438806E-2,-6.228033304E-1,7.519330262E-1
3.886822854E1,-3.636141419E-1,-2.209056318E-1,-4.202723503E-2,4.275287486E-1
3.906857054E1,-2.079329044E-1,-4.727692306E-1,-4.327936471E-2,5.182855791E-1
3.926891204E1,3.863429725E-1,6.200663447E-1,3.311060369E-1,8.021062099E-1
3.946925404E1,-3.327961266E-1,3.467091620E-1,7.125025988E-1,8.594303102E-1
3.966959504E1,-1.082896590E0,5.870573521E-1,6.931553036E-2,1.233736602E0
3.986993604E1,3.369538188E-1,-6.454599649E-2,-3.635219932E-1,4.998522794E-1
4.007027804E1,-3.077009916E-1,-3.421471715E-1,-4.579619467E-1,6.492100830E-1
4.027061850E1,2.429912984E-1,3.084872961E-1,1.751535535E-1,4.299859885E-1
4.047095950E1,6.244019046E-2,3.491555452E-1,9.647461772E-1,1.027883047E0
4.067130050E1,2.260469459E-2,5.422859788E-1,4.648348987E-1,7.146023636E-1
4.087164250E1,-6.651342660E-2,5.331430435E-1,-3.456467688E-1,6.388561885E-1
4.107198350E1,1.071834192E-1,-1.116176397E-1,-2.891635001E-1,3.279669383E-1
4.127232425E1,-4.628778696E-1,-6.954177618E-1,-7.082744241E-1,1.095223468E0
4.147266525E1,1.551819324E0,-7.168298960E-1,6.103022695E-1,1.815063959E0
4.167300625E1,-1.976244338E-2,1.379346251E-1,5.925554633E-1,6.087187299E-1
4.187334725E1,2.402220666E-1,5.113954544E-1,-4.376686513E-1,7.146928015E-1
4.207368825E1,-4.665969312E-1,-1.805869639E-1,-2.171180844E-1,5.454031631E-1
4.227402850E1,-1.087613821E0,-7.931932062E-2,-8.449151516E-1,1.379520566E0
4.247436950E1,-5.289136767E-1,4.161355495E-1,8.748798817E-2,6.786550089E-1
4.267471050E1,4.998048022E-2,1.942570508E-1,6.831393838E-1,7.119784181E-1
4.287505150E1,4.314664304E-1,1.804490834E-1,3.680545688E-1,5.951380662E-1
4.307539150E1,3.714104295E-1,1.187263727E-1,-1.515367478E-1,4.183360427E-1
4.327573288E1,-3.270864785E-1,-1.952611506E-1,-7.539348006E-1,8.447071474E-1
4.347607388E1,-3.740306199E-2,3.968482316E-1,4.347292185E-1,5.898109878E-1
4.367641488E1,-7.109418977E-3,4.054831564E-1,6.318215728E-1,7.507766871E-1
4.387675488E1,-3.000118434E-1,3.540586233E-1,7.214421034E-1,8.578131052E-1
4.407709588E1,-2.213126421E-1,-4.008193687E-2,-4.500135481E-1,5.030885019E-1
4.427743613E1,1.675561816E-2,-1.905201972E-1,-3.936018348E-1,4.376083873E-1
4.447777713E1,-4.978438616E-1,-6.010857821E-1,-5.362703204E-1,9.469627683E-1
4.467811813E1,1.765616417E0,-4.398172200E-1,6.437504292E-1,1.930092001E0
4.487845813E1,-1.322586834E-1,4.098223150E-1,5.414055586E-1,6.917851314E-1
4.507879813E1,5.765528083E-1,2.321884632E-1,-1.704747081E-1,6.445046542E-1
4.527913888E1,-1.550567746E-1,-3.104515672E-1,-3.027021140E-2,3.483375728E-1
4.547947888E1,-1.047765732E0,-1.439883113E-1,-8.403326273E-1,1.350816267E0
4.567981988E1,-1.018894911E0,5.559843779E-1,3.583575189E-1,1.214777996E0
4.588015988E1,2.964083850E-1,-3.166731596E-1,2.833560109E-1,5.181027404E-1
4.608049988E1,5.192745328E-1,-3.861985505E-1,-4.360329732E-2,6.486112922E-1
4.628084075E1,1.193474889E0,7.061738968E-1,6.730595827E-1,1.541451616E0
4.648118075E1,-2.008722126E-1,1.592577621E-2,-5.342549682E-1,5.709918101E-1
4.668152075E1,4.513286948E-1,7.394182682E-2,6.490933299E-1,7.940322005E-1
4.688186075E1,3.575547412E-2,5.050201416E-1,7.601969242E-1,9.133581778E-1
4.708220075E1,-2.589374483E-1,3.954442441E-1,5.097538829E-1,6.951789507E-1
4.728254163E1,-1.807775646E-1,-2.164333016E-1,-8.715975881E-1,9.160820146E-1
4.748288163E1,-6.342179142E-3,-1.921214759E-1,-1.865622848E-1,2.678737965E-1
4.768322163E1,-6.608167291E-2,-1.663553268E-1,-1.133047342E-1,2.118462769E-1
4.788356163E1,1.859506607E0,-6.274336576E-1,3.703010082E-1,1.997138116E0
4.808390163E1,2.856500745E-1,2.047535181E-1,5.508272648E-1,6.533992989E-1
4.828424079E1,5.165600777E-1,6.177026033E-1,-2.766430378E-1,8.514236257E-1
4.848458079E1,1.172873527E-1,9.214936942E-2,-1.121149063E-1,1.865946987E-1
4.868492079E1,-1.360824466E0,1.165391586E-4,-8.680880070E-1,1.614131354E0
4.888526079E1,-6.052491069E-1,1.211144701E-1,-3.379657269E-1,7.037158722E-1
4.908560079E1,3.512964025E-2,-3.927179612E-3,8.626898527E-1,8.634137457E-1
4.928593988E1,6.844106913E-1,-1.202138439E-1,-2.598796785E-1,7.418940692E-1
4.948627988E1,1.830093861E-1,-8.595440537E-2,4.613043368E-1,5.036688260E-1
4.968661988E1,-4.856273532E-1,-3.086192608E-1,-5.995252728E-1,8.309695103E-1
4.988695888E1,3.853082061E-1,4.646742642E-1,7.037970424E-1,9.272081009E-1
5.008729888E1,5.594710708E-1,-9.352922440E-2,8.276658058E-1,1.003387403E0
5.028763938E1,3.404032886E-1,5.362215266E-2,4.753765464E-1,5.871393318E-1
5.048797838E1,-3.812945783E-1,-4.137210548E-1,-9.178234935E-1,1.076545694E0
5.068831838E1,-2.118915021E-1,-4.225934446E-1,-7.458326817E-1,8.830343239E-1
5.088865738E1,-7.504003048E-1,-1.036440507E-1,-2.317096293E-1,7.921692111E-1
5.108899738E1,9.318156838E-1,1.667485088E-1,1.033256888E0,1.401322708E0
5.128933663E1,-1.424219161E-1,3.617005050E-1,4.206128418E-1,5.727359079E-1
5.148967563E1,1.067608669E-1,3.122308552E-1,-1.308598816E-1,3.549792928E-1
5.169001563E1,9.771449119E-2,-3.442972004E-1,-3.523881733E-1,5.022609966E-1
5.189035463E1,-1.055165529E0,-1.522657424E-1,-9.706480503E-1,1.441775568E0
5.209069463E1,5.502265096E-1,-4.383177459E-1,3.141024411E-1,7.704102814E-1
5.229103304E1,-1.839186996E-1,4.202028513E-1,6.756001115E-1,8.165978416E-1
5.249137204E1,5.545720458E-1,1.456772238E-1,-4.780601561E-1,7.465343397E-1
5.269171104E1,-3.390215635E-1,-2.555817068E-1,-9.507915378E-2,4.350835263E-1
5.289205104E1,-8.545972705E-1,1.545830965E-1,-6.921053529E-1,1.110514407E0
5.309239004E1,6.580904126E-1,2.208723426E-1,5.145414472E-1,8.640720362E-1
5.329272879E1,3.972135484E-1,4.511137307E-1,9.366155863E-1,1.112893058E0
5.349306779E1,1.324679554E-1,-1.988828778E-1,2.809973955E-1,3.688654153E-1
5.369340679E1,1.371878982E-1,-7.559329271E-2,-2.702192664E-1,3.123352642E-1
5.389374579E1,-3.090772927E-1,-1.230806038E-1,-5.091887116E-1,6.082357700E-1
5.409408479E1,2.818635404E-1,3.291037977E-1,7.342103869E-2,4.394849417E-1
5.429442375E1,1.712609679E-1,-9.261736274E-2,9.091413617E-1,9.297560490E-1
5.449476275E1,1.823922060E-2,4.046653211E-1,5.436959267E-1,6.780058642E-1
5.469510175E1,-8.202978969E-1,8.431917429E-2,-8.253203630E-1,1.166684218E0
5.489544075E1,4.240646362E-1,8.297307044E-2,-3.601621687E-1,5.625230075E-1
5.509577975E1,-3.197820112E-2,-1.104274392E0,-8.788184524E-1,1.411653786E0
5.529611875E1,3.618489504E-1,5.456523299E-1,1.026306391E0,1.217364340E0
5.549645675E1,3.522467911E-1,2.024544179E-1,4.770103693E-1,6.265815874E-1
5.569679575E1,-1.541474760E-1,4.374463558E-1,-1.725403517E-1,4.948645588E-1
5.589713475E1,2.262967676E-1,-2.629527450E-1,1.230105311E-1,3.680841804E-1
5.609747375E1,-1.064848065E0,-2.258080393E-1,-6.509215236E-1,1.268301818E0
5.629781204E1,3.856834173E-1,-9.763312340E-1,-1.719789803E-1,1.063743929E0
5.649815104E1,2.422561496E-1,-1.409885138E-1,7.408855557E-1,7.921345907E-1
5.669848904E1,-2.044886351E-1,-6.867164969E-1,-7.155165672E-1,1.012600171E0
5.689882804E1,3.200387955E-1,1.762614399E-2,3.904744685E-1,5.051790000E-1
5.709916704E1,-3.863708377E-1,-2.805098891E-1,-8.433765173E-1,9.691502319E-1
5.729950500E1,6.617764235E-1,4.317082167E-1,3.804103434E-1,8.769447237E-1
5.749984400E1,-5.505598709E-2,2.336106300E-1,4.108351469E-1,4.758052187E-1
5.770018200E1,-8.170942962E-2,8.537754416E-3,2.821254432E-1,2.938436486E-1
5.790052100E1,4.467554092E-1,-1.104307175E-1,-2.009387128E-2,4.606398840E-1
5.810085900E1,-4.228566587E-1,1.154769957E-1,-3.784697950E-1,5.791218145E-1
5.830119754E1,-9.728785604E-2,-1.795754284E-1,-1.239584014E-1,2.389099133E-1
5.850153654E1,5.544842482E-1,-1.390210986E-1,6.124190092E-1,8.377569398E-1
5.870187454E1,-1.640294045E-1,4.045095742E-1,7.599217296E-1,8.763644654E-1
5.890221254E1,-1.480830461E-2,4.747206271E-1,-1.044783443E-1,4.863071911E-1
5.910255154E1,-5.628388524E-1,-6.411042213E-1,-5.260203481E-1,1.002247276E0
5.930288900E1,-6.999768615E-1,-1.379872859E-1,-4.881752729E-1,8.644785681E-1
5.950322700E1,9.512564540E-1,-5.890586376E-1,-1.159282178E-1,1.124863668E0
5.970356500E1,2.252939194E-1,1.010276526E-1,4.948379695E-1,5.530176786E-1
5.990390400E1,4.207093120E-1,-1.106473207E0,-7.584819794E-1,1.405906895E0
6.010424200E1,-6.378781796E-2,1.295415759E-1,2.949313223E-1,3.283814710E-1
6.030457979E1,-4.365471900E-1,-4.025785998E-2,-3.539987206E-1,5.634795813E-1
6.050491779E1,4.750052691E-1,-2.834702432E-1,6.007944942E-1,8.166635835E-1
6.070525579E1,7.676607929E-3,7.017038763E-2,3.113313913E-1,3.192335334E-1
6.090559379E1,6.795608997E-2,6.403180957E-2,2.877093852E-1,3.024810624E-1
6.110593179E1,5.591422319E-1,3.097336888E-1,3.657906055E-1,7.364630070E-1
6.130627013E1,-4.523520768E-1,1.641165763E-1,-6.793407798E-1,8.325025808E-1
6.150660813E1,1.572678089E-1,5.355396271E-1,3.887132704E-1,6.801719360E-1
6.170694513E1,7.667396665E-1,2.847093046E-1,7.277144194E-1,1.094768186E0
6.190728313E1,-6.610912085E-1,5.205602050E-1,4.231531918E-1,9.418509100E-1
6.210762113E1,-8.087636232E-1,-3.675457239E-1,-1.024154305E0,1.355758274E0
6.230795938E1,-3.833762705E-1,1.055448726E-1,-3.303227723E-1,5.169431485E-1
6.250829738E1,2.757105790E-2,3.003870845E-1,-6.202816498E-3,3.017135043E-1
6.270863438E1,1.055585027E0,-2.261659503E-1,6.059529781E-1,1.237978109E0
6.290897238E1,2.819912732E-1,2.757661641E-1,8.784299493E-1,9.629149657E-1
6.310931038E1,-2.556853369E-2,7.009757757E-1,-2.043900192E-1,7.306134874E-1
6.330964692E1,-1.305599213E-1,-1.147816330E-1,-7.260705531E-2,1.883945350E-1
6.350998492E1,-1.264594316E0,-8.348006522E-4,-7.587060332E-1,1.474731951E0
6.371032292E1,6.998779774E-1,-4.047785103E-1,9.992851317E-2,8.146536279E-1
6.391065992E1,4.970760643E-1,-1.350799501E-1,6.079680920E-1,7.968415197E-1
6.411099792E1,-8.213004470E-2,-8.980207443E-1,-9.622940421E-1,1.318785966E0
6.431133492E1,-2.350596339E-1,-1.849737614E-1,1.155033708E-1,3.206389754E-1
6.451167292E1,-6.097409129E-1,-2.205774933E-1,-8.040161133E-1,1.032898989E0
6.471200992E1,-8.222686648E-1,-4.036482871E-1,8.128980547E-2,9.196008532E-1
6.491234692E1,7.254409045E-2,3.470456898E-1,4.987986088E-1,6.119668357E-1
6.511268492E1,-9.737501293E-2,-1.444654465E-1,-4.549538791E-1,4.871705969E-1
6.531302263E1,9.759783149E-1,1.202427074E-1,2.854498327E-1,1.023949992E0
6.551335963E1,-4.078789949E-1,-7.413315028E-2,-4.868477285E-1,6.394385891E-1
6.571369763E1,4.242826402E-1,1.798077375E-1,3.866098225E-1,6.015095478E-1
6.591403463E1,-4.183809832E-2,1.174671110E-3,2.630568743E-1,2.663657738E-1
6.611437163E1,9.514553845E-2,3.185361028E-1,5.032622814E-1,6.031507657E-1
6.631470779E1,-2.905119359E-1,-1.077379882E-1,-6.162734032E-1,6.897808105E-1
6.651504479E1,-2.786322236E-1,-1.572687477E-1,-5.052330494E-1,5.980215792E-1
6.671538179E1,-2.701449767E-2,3.251903877E-2,-9.106350690E-2,1.003983728E-1
6.691571979E1,7.227786779E-1,-4.045187533E-1,8.340162039E-1,1.175426504E0
6.711605679E1,-1.839319170E-1,8.133304715E-1,4.103294611E-1,9.293587427E-1
6.731639400E1,7.196345925E-2,3.439564258E-2,-2.471606880E-1,2.597117737E-1
6.751673100E1,1.209683642E-1,-6.740452349E-2,4.034952074E-2,1.442386867E-1
6.771706800E1,-4.580913484E-1,-6.216181815E-2,-5.810704231E-1,7.425325661E-1
6.791740400E1,4.665968120E-1,-8.376688957E-1,-1.369981747E-2,9.589522662E-1
6.811774100E1,4.116798639E-1,5.584339797E-2,3.865772784E-1,5.674863766E-1
6.831807838E1,-3.058080673E-1,6.341887638E-4,-4.825910032E-1,5.713256975E-1
6.851841538E1,-8.358360827E-2,-3.025517166E-1,-1.578927338E-1,3.513600378E-1
6.871875238E1,-7.118388414E-1,-2.312634587E-1,-4.134539962E-1,8.550681438E-1
6.891908938E1,-6.810134053E-1,2.648731172E-1,8.285173029E-2,7.353920286E-1
6.911942538E1,7.556385994E-1,-2.293599993E-1,7.883197665E-1,1.115815288E0
6.931976200E1,5.174118876E-1,-5.264358521E-1,9.713140875E-2,7.445027054E-1
6.952009900E1,5.213083625E-1,4.579415321E-1,-7.577282190E-2,6.980074328E-1
6.972043600E1,-1.556433290E-1,-1.397001445E-1,-4.812550843E-1,5.247355833E-1
6.992077200E1,1.348501593E-1,1.539860666E-1,6.501677632E-1,6.816262865E-1
7.012110900E1,8.239949346E-1,-6.520471573E-1,3.458802998E-1,1.106239725E0
7.032144500E1,2.454507537E-2,-5.686860532E-2,1.902034134E-1,2.000345906E-1
7.052178200E1,-3.334490955E-1,-3.694026172E-1,-4.337787032E-1,6.601594930E-1
7.072211800E1,-2.106187195E-1,1.550656091E-2,-4.842999578E-1,5.283437778E-1
7.092245500E1,1.940020472E-1,-2.706724107E-1,6.430584937E-2,3.391689704E-1
7.112279100E1,5.518200994E-1,7.825428843E-1,5.845380425E-1,1.121857171E0
7.132312829E1,-2.049931884E-1,5.111671090E-1,3.072585464E-1,6.306519126E-1
7.152346429E1,-3.170460463E-1,4.039859772E-2,-1.248123124E-1,3.431156590E-1
7.172380129E1,-1.085848585E-1,-4.113609344E-2,-8.532615006E-2,1.440951129E-1
7.192413729E1,-3.624372780E-1,2.959880829E-1,-1.017896831E-1,4.788850231E-1
7.212447329E1,-3.013094068E-1,-1.533764154E-1,2.334459126E-1,4.108633319E-1
7.232481050E1,1.240665019E-1,1.203499585E-1,3.590859771E-1,3.985214528E-1
7.252514650E1,-1.534868777E-1,-9.522045404E-2,-1.417707652E-1,2.296173041E-1
7.272548250E1,7.999277115E-1,4.035375416E-1,3.585971296E-1,9.650485959E-1
7.292581950E1,-4.793536961E-1,-5.265582800E-1,-6.810451150E-1,9.853253457E-1
7.312615550E1,1.393380314E-1,4.132597446E-1,3.618601859E-1,5.666934777E-1
7.332649079E1,5.266354084E-1,4.261915982E-1,9.006437659E-1,1.127006355E0
7.352682679E1,3.934133351E-1,-1.385077834E-1,4.978392124E-1,6.494631165E-1
7.372716279E1,-5.362899899E-1,-6.676112413E-1,-8.948022127E-1,1.238540562E0
7.392749879E1,-2.172931880E-1,-1.766098440E-1,-7.836523652E-1,8.321769019E-1
7.412783479E1,-6.031891704E-1,4.771208167E-1,-2.161564864E-2,7.693820152E-1
7.432817100E1,1.027394772E0,3.356545269E-1,1.283418059E0,1.677905210E0
7.452850700E1,-3.907969594E-1,1.934232265E-1,2.546603382E-1,5.049620737E-1
7.472884300E1,-4.061775208E-1,-3.030893505E-1,-6.991249323E-1,8.634923298E-1
7.492917900E1,9.364832938E-2,3.162963092E-1,1.252077669E-1,3.528319001E-1
7.512951500E1,-2.609096169E-1,1.256909817E-1,-4.407242537E-1,5.273612793E-1
7.532985050E1,1.205269575E0,-1.259304404E0,1.665334404E-1,1.751072734E0
7.553018550E1,1.795917302E-1,2.836604714E-1,6.043190956E-1,6.913161520E-1
7.573052150E1,-1.819597483E-1,3.478192687E-1,-6.939154863E-1,7.972492056E-1
7.593085750E1,3.682999611E-1,-2.025013864E-1,4.460891336E-2,4.226601803E-1
7.613119350E1,-6.969876885E-1,-1.211445481E-1,-8.850119114E-1,1.133010999E0
7.633152888E1,-5.375288725E-1,2.764750421E-1,-6.956664473E-2,6.084531664E-1
7.653186487E1,1.969900131E-1,-3.177823424E-1,3.456577957E-1,5.091856186E-1
7.673220088E1,7.740356028E-2,-1.159075141E0,-5.837168694E-1,1.300066105E0
7.693253588E1,6.077970862E-1,3.639675677E-1,4.544719458E-1,8.416854744E-1
7.713287188E1,-6.281556487E-1,3.608959913E-2,-8.090776801E-1,1.024933496E0
7.733320775E1,-3.875404298E-1,2.852177024E-1,3.593243659E-1,6.005420238E-1
7.753354275E1,5.688414574E-1,-1.455088556E-1,7.237983942E-1,9.320072672E-1
7.773387875E1,-1.998516172E-1,-1.601843089E-1,3.760286570E-1,4.549694853E-1
7.793421375E1,-4.529569149E-1,3.649166524E-1,-5.573588610E-1,8.055948299E-1
7.813454975E1,-4.580458999E-1,3.258429468E-2,-4.708462954E-1,6.576959909E-1
7.833488438E1,4.169170856E-1,5.131685734E-1,3.953269497E-2,6.623629481E-1
7.853521938E1,2.130804211E-1,4.789036233E-3,1.477972627E0,1.493261292E0
7.873555537E1,-4.841156006E-1,2.051584423E-1,1.512360573E-1,5.471108171E-1
7.893589038E1,1.660639048E-1,-3.969004750E-1,-1.885778755E-1,4.697540023E-1
7.913622538E1,-3.173498809E-1,-1.800692677E-1,-8.406738043E-1,9.164433061E-1
7.933656213E1,-1.708940864E-1,4.084267914E-1,-2.156640738E-1,4.924715479E-1
7.953689713E1,9.559504986E-1,-5.732267499E-1,6.892537475E-1,1.310534620E0
7.973723213E1,-2.969962955E-1,3.877936602E-1,3.951184154E-1,6.282589311E-1
7.993756713E1,1.987394840E-1,5.662534833E-1,-2.046272904E-1,6.340447285E-1
8.013790313E1,-1.789932251E-1,-2.847598791E-1,-2.156411409E-1,3.995345605E-1
8.033823825E1,-5.675927401E-1,-1.132394001E-1,-3.029094040E-1,6.532524683E-1
8.053857325E1,1.330173492E0,-1.018311620E0,1.538436264E-1,1.682256799E0
8.073890825E1,-2.776570916E-1,1.662347615E-1,1.620154530E-1,3.619067055E-1
8.093924325E1,4.447077811E-1,-2.778483331E-1,-3.887683749E-1,6.527676126E-1
8.113957825E1,2.586485744E-1,-2.425761223E-1,2.475700527E-1,4.324733415E-1
8.133991263E1,-9.577159286E-1,-1.302478760E-1,-7.725788355E-1,1.237361049E0
8.154024763E1,-8.155729175E-1,7.707317919E-2,6.339117289E-1,1.035829879E0
8.174058263E1,-3.268217444E-1,5.191700459E-1,5.203865767E-1,8.044576921E-1
8.194091763E1,-6.901716441E-2,-8.720836043E-2,-2.196851373E-1,2.462320585E-1
8.214125263E1,3.345434964E-1,-1.239063218E-1,-9.832709283E-2,3.700545159E-1
8.234158775E1,-7.630877197E-2,9.930299595E-3,-5.618851781E-1,5.671301375E-1
8.254192275E1,3.311674595E-1,2.388684154E-1,2.233712822E-1,4.654296250E-1
8.274225775E1,5.322701931E-1,4.253026843E-1,8.921288252E-1,1.122536312E0
8.294259175E1,-1.865494549E-1,-5.462104455E-4,5.071364045E-1,5.403594454E-1
8.314292675E1,2.958426950E-3,-5.140506625E-1,-5.342090726E-1,7.413745134E-1
8.334326200E1,-5.088340044E-1,1.304853242E-3,-4.713081717E-1,6.935741773E-1
8.354359700E1,5.928722620E-1,-3.178857267E-1,1.129640490E-1,6.821361526E-1
8.374393200E1,1.118633710E-2,1.452398300E-1,5.832530260E-1,6.011687240E-1
8.394426600E1,-2.713179290E-1,-2.307570875E-1,3.027168214E-1,4.674395426E-1
8.414460100E1,-8.375260979E-2,7.523466647E-2,-1.323612630E-1,1.737649523E-1
8.434493629E1,6.542243809E-2,-2.123458534E-1,1.041012332E-1,2.453730296E-1
8.454527029E1,1.162424311E-2,-2.395541668E-1,1.002051309E-1,2.599276632E-1
8.474560529E1,-6.760236025E-1,-1.038828850E0,-3.039050102E-1,1.276139313E0
8.494593929E1,1.285964847E0,-2.506066263E-1,5.553712845E-1,1.423006160E0
8.514627429E1,-2.158588648E0,2.141510725E0,3.951821923E-1,3.066226036E0
8.534660963E1,-3.282593787E-1,1.770487577E-1,-3.922889531E-1,5.412865276E-1
8.554694363E1,1.069756508E0,5.060256124E-1,5.382677317E-1,1.300066559E0
8.574727863E1,-4.529472888E-1,-3.615480661E-1,4.059491456E-1,7.075824753E-1
8.594761263E1,-1.872325093E-1,5.015841126E-1,-3.440517175E-4,5.353902810E-1
8.614794763E1,1.574028015E0,3.501681983E-1,5.241697431E-1,1.695563587E0
8.634828117E1,1.179278016E0,-2.200507522E-1,2.958042026E-1,1.235564284E0
8.654861617E1,-4.823151529E-1,5.429785848E-1,-3.427076936E-1,8.030580387E-1
8.674895017E1,6.174851656E-1,-4.481704533E-1,2.277291268E-1,7.962444600E-1
8.694928417E1,-1.100056410E0,5.804665685E-1,8.631436527E-2,1.246802194E0
8.714961917E1,9.142494202E-1,-6.001170725E-2,-4.164397717E-1,1.006417155E0
8.734995275E1,-8.500651717E-1,1.450968862E0,7.029712200E-1,1.822660136E0
8.755028675E1,-6.582374871E-2,-5.920863152E-1,-1.650702953E-1,6.181805342E-1
8.775062175E1,1.132211275E-2,-6.752257943E-1,1.661663949E-1,6.954633954E-1
8.795095575E1,-9.973016381E-1,8.941643238E-1,-4.637797177E-1,1.417473817E0
8.815128975E1,2.372848094E-1,-4.020000696E-1,4.717317224E-1,6.636557501E-1
8.835162429E1,4.442752898E-1,-7.549818158E-1,-7.068997025E-1,1.125648819E0
8.855195829E1,-4.620516002E-1,-1.227713935E-2,-1.340129972E-1,4.812503432E-1
8.875229329E1,6.956914663E-1,1.380439043E0,6.984977126E-1,1.696318845E0
8.895262729E1,-7.327968478E-1,7.187461853E-1,1.515772939E0,1.830615989E0
8.915296129E1,7.033375502E-1,-5.062891245E-1,-5.874011293E-2,8.685981740E-1
8.935329525E1,2.287008762E-1,2.400943190E-1,-3.100212216E-1,4.539411092E-1
8.955362925E1,3.887718916E-1,4.808936715E-1,-8.496876061E-2,6.241970821E-1
8.975396325E1,-1.884855032E-1,1.475949120E-2,-3.573352993E-1,4.042686527E-1
8.995429725E1,6.048518792E-2,-5.197860599E-1,5.715935305E-2,5.264059248E-1
9.015463125E1,-3.703972697E-1,8.555724621E-1,3.031237423E-1,9.803480905E-1
9.035496450E1,2.693807781E-1,3.638575971E-1,1.812650561E-1,4.876631780E-1
9.055529850E1,1.294956923E0,-7.253488898E-1,3.783965111E-1,1.531740305E0
9.075563250E1,-3.795857131E-1,3.326795250E-2,-3.067662418E-1,4.891805366E-1
9.095596650E1,9.527846575E-1,-2.433597445E-1,-2.689184844E-1,1.019480122E0
9.115629950E1,-9.316602349E-1,-6.725934148E-1,-8.730819821E-1,1.443137153E0
9.135663350E1,-9.484549612E-2,9.273236617E-3,-1.660495996E-1,1.914526850E-1
9.155696750E1,-7.627917081E-2,7.300537825E-1,-1.559402049E-1,7.504094780E-1
9.175730150E1,-8.704279363E-2,-1.261606812E-1,8.543305844E-2,1.754758470E-1
9.195763450E1,7.724120021E-1,3.893220425E-1,1.324648857E-1,8.750650831E-1
9.215796850E1,-6.331732869E-1,8.165789247E-1,9.654931426E-1,1.414173455E0
9.235830254E1,9.512459487E-2,-5.300837755E-1,9.963352233E-3,5.386434498E-1
9.255863654E1,-2.776404917E-1,-4.823016524E-1,-4.791266918E-1,7.343442744E-1
9.275896954E1,-2.637785077E-1,2.511604428E-1,1.560081355E-2,3.645600836E-1
9.295930354E1,4.325916469E-1,7.744315267E-2,-1.965154707E-1,4.814055516E-1
9.315963654E1,4.224553704E-1,-2.177638113E-1,1.263207942E-1,4.917789753E-1
9.335997067E1,4.540413916E-1,6.738933921E-1,5.187221169E-1,9.640324288E-1
9.356030467E1,1.082655117E-1,-2.158535123E-1,1.202583313E-1,2.697706916E-1
9.376063767E1,-2.167805880E-1,-2.964392006E-1,-3.118247911E-2,3.685679992E-1
9.396097167E1,-2.937400341E-1,-2.783892751E-1,-6.250172257E-1,7.446007847E-1
9.416130467E1,-1.381852180E-1,6.104115844E-1,4.424232841E-1,7.664436177E-1
9.436163938E1,5.234543085E-1,1.560691185E-2,-8.545665145E-1,1.002263397E0
9.456197238E1,4.015417770E-2,-2.832681537E-1,3.348592520E-1,4.404360606E-1
9.476230538E1,-3.319333792E-1,1.275785714E-1,-3.401600420E-1,4.921025445E-1
9.496263938E1,-7.713053375E-2,3.316041827E-2,1.250651628E-1,1.506320933E-1
9.516297238E1,7.099855542E-1,4.229463637E-1,6.613696814E-1,1.058476721E0
9.536330538E1,-4.409450293E-1,-5.194968581E-1,-1.434747577E-1,6.963436727E-1
9.556363938E1,-1.595221460E-1,-1.700475663E-1,1.936373115E-2,2.339624841E-1
9.576397238E1,2.622981071E-1,-4.604070783E-1,-1.144922614E0,1.261595326E0
9.596430538E1,2.421294004E-1,3.469995689E-3,6.950600445E-2,2.519320782E-1
9.616463838E1,-8.815311641E-2,-7.336392403E-1,-8.983343244E-1,1.163186170E0
9.636497204E1,-4.593428373E-1,8.960427642E-1,1.143320203E0,1.523505682E0
9.656530504E1,1.221873015E-1,3.822787106E-2,7.211338282E-1,7.324104757E-1
9.676563804E1,2.205862254E-1,3.399065882E-2,-8.159916401E-1,8.459645409E-1
9.696597104E1,-5.292233825E-1,1.674430668E-1,-2.121075094E-1,5.942256850E-1
9.716630404E1,-1.814903170E-1,1.620974541E-1,-2.576670647E-1,3.544102651E-1
9.736663725E1,-6.910032779E-2,-3.222250640E-1,3.868677914E-1,5.082032420E-1
9.756697125E1,4.498716816E-2,5.962904096E-1,8.849493265E-1,1.068045602E0
9.776730425E1,3.996038064E-2,1.786408663E0,4.743922055E-1,1.848756530E0
9.796763725E1,-2.971413434E-1,-7.065895200E-2,-7.122997195E-2,3.136229812E-1
9.816797025E1,-1.005905271E-1,-2.319578975E-1,-1.103959903E-1,2.758807624E-1
9.836830304E1,-3.619857430E-1,-1.477262825E-1,-1.581246108E-1,4.217346621E-1
9.856863604E1,5.947805643E-1,3.807494789E-2,3.377285600E-1,6.850359126E-1
9.876896904E1,6.392114758E-1,1.635982692E-1,-1.196649149E-1,6.705784044E-1
9.896930204E1,-9.149893522E-1,1.179721355E0,3.484061658E-1,1.533080183E0
9.916963404E1,-1.515248865E-1,-7.891964912E-1,-1.919245720E-1,8.262117975E-1
9.936996650E1,7.100257277E-2,6.873974800E-1,1.882946044E-1,7.162482244E-1
9.957029950E1,-9.737955034E-2,-3.367123902E-1,2.641621530E-1,4.389073406E-1
9.977063250E1,1.937961578E-1,3.218039125E-2,-2.239366062E-2,1.977220382E-1
9.997096550E1,6.679040194E-1,6.468045712E-2,-9.663247466E-1,1.176462008E0
1.001712985E2,-6.385388970E-1,1.118417978E-1,4.782104790E-1,8.055592921E-1
1.003716313E2,2.337734401E-1,5.824596882E-1,2.347307950E-1,6.700804846E-1
1.005719643E2,-2.004566491E-1,1.312119007E0,1.992226720E0,2.393910287E0
1.007722973E2,9.892979264E-2,-7.407049835E-2,-3.047314100E-2,1.272876857E-1
1.009726293E2,5.736435652E-1,-2.251250446E-1,7.435172796E-2,6.207063758E-1
1.011729623E2,-3.301346004E-1,-2.914033532E-1,-1.287430376E-1,4.587804904E-1
1.013732949E2,-5.589745566E-2,7.577865571E-2,-3.310000002E-1,3.441335938E-1
1.015736269E2,-3.917649761E-2,-6.332849860E-1,-1.623065174E-1,6.549260088E-1
1.017739599E2,3.804706037E-1,3.246304989E-1,3.406463563E-1,6.051303836E-1
1.019742929E2,4.020079970E-1,5.481710434E-1,4.182768464E-1,7.981587829E-1
1.021746249E2,4.641247690E-1,3.343894482E-1,1.440147012E-1,5.898884118E-1
1.023749579E2,-2.528407872E-1,-3.479889631E-1,-1.763089001E-1,4.648759086E-1
1.025752899E2,7.645107508E-1,-1.162380166E-2,-2.497787774E-1,8.043638719E-1
1.027756229E2,-5.205571651E-1,2.484050542E-1,-4.489119947E-1,7.308945287E-1
1.029759549E2,1.512662917E-1,1.001846552E0,-2.002901435E-1,1.032808862E0
1.031762879E2,-5.387325883E-1,4.699288607E-1,8.151665330E-2,7.195212996E-1
1.033766206E2,2.134607285E-1,-5.705557466E-1,-4.030259550E-1,7.304308748E-1
1.035769536E2,3.297747970E-1,8.109492809E-2,-2.634947598E-1,4.298340290E-1
1.037772856E2,5.393147841E-2,-8.546788096E-1,-2.149376646E-2,8.566483841E-1
1.039776186E2,3.010299504E-1,-1.978247464E-1,1.237387881E-1,3.808739279E-1
1.041779506E2,8.009356856E-1,-1.253604770E0,-1.016159177E0,1.801555540E0
1.043782821E2,-7.847737074E-1,8.926265687E-2,-1.998640597E-1,8.147289341E-1
1.045786151E2,4.820821285E-1,2.606283724E-1,-1.134442091E-1,5.596426679E-1
1.047789471E2,-1.187240243E0,4.772548974E-1,1.051989079E0,1.656500122E0
1.049792791E2,2.645358443E-1,-1.721928120E-1,3.585612774E-1,4.776984060E-1
1.051796121E2,9.218126535E-1,-8.287635446E-2,-2.721454203E-1,9.647124899E-1
1.053799445E2,-6.615251303E-1,5.287426058E-3,-1.083180308E-1,6.703553167E-1
1.055802765E2,3.145648241E-1,4.871417582E-1,-2.345591933E-1,6.255206921E-1
1.057806085E2,2.704923451E-1,-4.369370639E-1,3.195452988E-1,6.051357737E-1
1.059809405E2,-4.177117646E-1,1.422227472E-1,3.690042794E-1,5.752169906E-1
1.061812735E2,6.074164510E-1,1.329926401E-1,7.930825651E-2,6.268425534E-1
1.063816051E2,4.547229037E-2,5.717183948E-1,4.028828740E-1,7.008881953E-1
1.065819371E2,6.756019592E-2,9.422039986E-2,2.799323797E-1,3.029917508E-1
1.067822691E2,2.418524027E-1,8.752653003E-1,3.260546029E-1,9.648282410E-1
1.069826011E2,-1.861971766E-1,-1.012215853E0,7.871651649E-1,1.295715755E0
1.071829331E2,-4.032250047E-1,-3.545772731E-1,-2.188490778E-1,5.798364993E-1
1.073832648E2,9.634076804E-2,-8.140853047E-2,-9.110215902E-1,9.197114930E-1
1.075835968E2,-1.127297640E0,6.378501654E-1,3.289232552E-1,1.336354485E0
1.077839288E2,4.071115255E-1,-9.127325565E-2,-2.716628313E-1,4.978667446E-1
1.079842608E2,-1.010977104E-1,4.515600502E-1,1.219371557E0,1.304221692E0
1.081845928E2,1.806377620E-1,1.152848154E-1,2.220164686E-1,3.085642592E-1
1.083849249E2,3.646146357E-1,-3.491553962E-1,-1.475116313E-1,5.259401151E-1
1.085852569E2,1.105115488E-1,-8.299883604E-1,-2.711216509E-1,8.801138736E-1
1.087855889E2,-3.715864122E-1,5.298525691E-1,-2.194012702E-1,6.833426110E-1
1.089859209E2,1.243843809E-1,-1.673563957E0,-1.348139405E0,2.152618789E0
1.091862529E2,-1.577038318E-1,5.594388247E-1,9.249670804E-2,5.885558071E-1
1.093865844E2,8.190583587E-1,3.715598956E-2,-3.138162568E-2,8.205010475E-1
1.095869164E2,-3.121134341E-1,7.686924934E-1,2.127110809E-1,8.564747218E-1
1.097872484E2,1.609636657E-2,-3.600302339E-1,-2.234801352E-1,4.240568749E-1
1.099875804E2,7.447783947E-1,4.676289260E-1,-1.202941090E-1,8.876048346E-1
1.101879124E2,-9.906456470E-1,-5.499243140E-1,-1.756110340E-1,1.146575242E0
1.103882428E2,-1.952698380E-1,8.796847612E-2,-4.100599587E-1,4.626207217E-1
1.105885748E2,-6.340794563E-1,-2.999802828E-1,-9.573988318E-1,1.186868759E0
1.107889068E2,9.229421616E-2,1.811094135E-1,3.468667567E-1,4.020390390E-1
1.109892378E2,2.537199855E-1,-5.888337493E-1,-3.521718085E-1,7.315217003E-1
1.111895698E2,-3.928556442E-1,1.616845131E0,1.686868787E0,2.369398666E0
1.113899020E2,8.054078221E-1,1.339921355E-2,1.914890110E-1,8.279669922E-1
1.115902330E2,5.385273695E-1,2.802666426E-1,2.667692304E-2,6.076781853E-1
1.117905650E2,-7.751221955E-2,1.662088484E-1,-1.641189307E-1,2.461067835E-1
1.119908960E2,1.558991969E-1,1.023635641E-1,-3.039760590E-1,3.566290836E-1
1.121912280E2,5.061356425E-1,-1.048560023E0,1.384445876E-1,1.172526467E0
1.123915588E2,-3.202499151E-1,6.575797796E-1,-1.644680053E-1,7.496805316E-1
1.125918908E2,2.247636914E-1,-4.789399803E-1,-2.124401927E-1,5.701167049E-1
1.127922218E2,-1.637667045E-2,-6.930994987E-1,-4.778252542E-1,8.420048005E-1
1.129925538E2,-4.844743609E-1,-2.215436548E-1,-1.587629318E-1,5.558800823E-1
1.131928848E2,-2.582450509E-1,6.482354999E-1,3.554926515E-1,7.831186339E-1
1.133932169E2,3.957556784E-1,-1.633676589E-1,-1.039761066E0,1.124461927E0
1.135935479E2,-1.732397974E-1,2.333285213E-1,1.460217834E-1,3.252331278E-1
1.137938789E2,-6.787454486E-1,-3.517035842E-1,-2.220156044E-1,7.960412827E-1
1.139942109E2,-1.819367856E-1,-2.384135425E-1,-2.481840402E-1,3.892779585E-1
1.141945419E2,5.401048064E-1,1.740445346E-1,-4.707430303E-2,5.694038039E-1
1.143948726E2,-1.554422174E-2,-3.298652470E-1,-1.354660392E0,1.394330478E0
1.145952046E2,1.167559847E-1,6.373162568E-2,-5.542861223E-1,5.700234955E-1
1.147955356E2,1.932900101E-1,-6.579044461E-1,-1.398358226E0,1.557435397E0
1.149958666E2,-6.219412684E-1,-5.511127114E-1,-8.219758868E-1,1.168837252E0
1.151961976E2,5.368605256E-1,8.556351662E-1,4.443175346E-2,1.011090966E0
1.153965300E2,-2.947856188E-1,-6.054118872E-1,1.868026257E-1,6.987970629E-1
1.155968610E2,4.769938588E-1,-2.969983518E-1,-3.498496711E-1,6.619108359E-1
1.157971920E2,4.216043651E-1,-3.882874548E-1,-5.510818958E-1,7.951154911E-1
1.159975230E2,-6.544789076E-1,-1.770420969E-1,-8.488888144E-1,1.086415558E0
1.161978540E2,2.163499594E-1,2.498525977E-1,-4.554625154E-1,5.627430394E-1
1.163981853E2,-9.719728827E-1,5.391162634E-1,2.810161710E-1,1.146450051E0
1.165985163E2,6.203586459E-1,4.785686359E-2,9.706791639E-1,1.152975788E0
1.167988473E2,9.565955400E-2,-3.971914649E-1,-9.693118930E-1,1.051892274E0
1.169991783E2,-2.769879103E-1,-4.854585603E-2,-5.248905420E-1,5.954738312E-1
1.171995093E2,-2.627978325E-1,-3.354886174E-1,-5.646555424E-1,7.074257521E-1
1.173998409E2,8.913876414E-1,-1.223497614E-1,-5.895528793E-1,1.075692330E0
1.176001709E2,-1.784297973E-1,-8.591871709E-2,4.114850461E-1,4.566608826E-1
1.178005019E2,2.028748840E-1,6.266192198E-1,1.435493827E-1,6.741040650E-1
1.180008329E2,-4.699932337E-1,-3.566656411E-1,1.515518874E-1,6.091567892E-1
1.182011639E2,-1.573176533E-1,-4.946600199E-1,-6.895616651E-1,8.630948205E-1
1.184014951E2,2.930118740E-1,-8.594362736E-1,-4.356043637E-1,1.007093753E0
1.186018261E2,-3.271001279E-1,8.044071198E-1,1.419032067E-1,8.798873951E-1
1.188021571E2,3.882348239E-1,5.639170408E-1,3.274147213E-1,7.588999322E-1
1.190024881E2,-4.774110615E-1,-4.944408312E-2,-8.112750947E-2,4.867727517E-1
1.192028191E2,6.035459787E-2,-4.261639714E-1,-3.690074980E-1,5.669435083E-1
1.194031491E2,-4.594068229E-1,4.204964638E-1,2.507061958E-1,6.713609325E-1
1.196034801E2,9.272716641E-1,-6.114799380E-1,1.206843369E-2,1.110804259E0
1.198038111E2,-9.142351151E-2,2.280459106E-1,4.271684885E-1,4.927840433E-1
1.200041421E2,3.342719674E-1,-9.259423614E-1,-1.435259223E0,1.740424098E0
1.202044731E2,-5.124319196E-1,-1.085530147E-1,-6.283600628E-2,5.275590895E-1
1.204048031E2,2.509613633E-1,8.314021863E-3,-4.982270002E-1,5.579255081E-1
1.206051341E2,-1.780956149E0,7.102183700E-1,1.104219675E0,2.212581304E0
1.208054651E2,-3.707897365E-1,5.364158750E-1,3.443746865E-1,7.374421634E-1
1.210057951E2,1.196385920E-2,-4.504486918E-1,-7.054232955E-1,8.370598448E-1
1.212061261E2,-4.815954864E-1,2.106337100E-1,3.080087900E-1,6.092373815E-1
1.214064573E2,2.529832423E-1,4.695825875E-1,-3.491263986E-1,6.374931917E-1
1.216067873E2,1.717030853E-1,-8.926575780E-1,-1.600850672E-1,9.230096044E-1
1.218071183E2,1.858155429E-1,5.971173048E-1,1.038181424E0,1.211980677E0
1.220074493E2,8.160980940E-1,-1.513756961E-1,-6.470224354E-3,8.300437122E-1
1.222077793E2,-3.061607480E-1,1.938040368E-2,3.058718741E-1,4.332061946E-1
1.224081101E2,-2.757191658E-1,-2.945651710E-1,-3.889735043E-1,5.604374054E-1
1.226084401E2,5.165538788E-1,-7.115978599E-1,-5.834660530E-1,1.055287666E0
1.228087711E2,-8.237985969E-1,3.785945773E-1,1.403856725E-1,9.174345313E-1
1.230091011E2,3.490056396E-1,6.080668569E-1,3.832321763E-1,7.990100999E-1
1.232094321E2,-5.193104148E-1,3.744274974E-1,3.075051010E-1,7.102384422E-1
1.234097629E2,-2.147131860E-1,9.652896971E-2,-4.475731552E-1,5.057087338E-1
1.236100929E2,2.450875938E-1,6.647511125E-1,4.207330346E-1,8.240013693E-1
1.238104239E2,-4.943217933E-1,-7.228797078E-1,8.287660778E-3,8.757726832E-1
1.240107539E2,-2.362152189E-1,4.265384078E-1,-4.507233202E-2,4.896571842E-1
1.242110849E2,8.032684326E-1,5.764043331E-1,-4.328901172E-1,1.079294206E0
1.244114149E2,-5.453373790E-1,4.520703480E-2,-1.592303067E-1,5.699042231E-1
1.246117459E2,-7.100730389E-2,8.700149059E-1,2.194520235E-1,9.000706441E-1
1.248120759E2,-1.838380843E-1,4.244564772E-1,1.232314944E0,1.316267398E0
1.250124059E2,-2.503995895E-1,1.257688552E-1,3.437437415E-1,4.434833923E-1
1.252127369E2,1.630033180E-2,-1.245408535E0,2.244956195E-1,1.265585399E0
1.254130666E2,-6.086387634E-1,1.074260592E0,-9.404804558E-2,1.238273798E0
1.256133976E2,2.038564235E-1,-3.003114164E-1,-2.901401818E-1,4.646780749E-1
1.258137276E2,-3.746701479E-1,-2.726303637E-1,2.993245721E-1,5.516341490E-1
1.260140576E2,-7.941795047E-4,6.606874466E-1,1.124491811E0,1.304220214E0
1.262143886E2,3.771551549E-1,4.321391582E-1,4.421996176E-1,7.242449619E-1
1.264147198E2,5.117766857E-1,-6.902402043E-1,-4.540665820E-2,8.604700345E-1
1.266150498E2,-1.327965707E-1,-1.863917410E-1,-3.272012174E-1,3.992961895E-1
1.268153808E2,1.713587344E-1,-2.892986834E-1,-2.716924809E-2,3.373362004E-1
1.270157108E2,-1.413915604E-1,3.762087226E-1,3.262291253E-1,5.176388881E-1
1.272160408E2,4.584837854E-1,7.606768012E-1,2.233575284E-1,9.158193942E-1
1.274163694E2,-5.746499300E-1,5.783491135E-1,1.564812362E-1,8.301786653E-1
1.276167004E2,-3.777811229E-1,-2.934725881E-1,-5.557858348E-1,7.333093692E-1
1.278170304E2,1.333508492E-1,7.298063040E-1,2.483641654E-1,7.823582613E-1
1.280173604E2,-2.147987038E-1,-4.093512595E-1,-1.952092862E-4,4.622845172E-1
1.282176904E2,1.050452888E-1,6.231699139E-2,2.123476118E-1,2.449682191E-1
1.284180211E2,6.430037022E-1,-8.800713420E-1,-9.408629537E-1,1.439861947E0
1.286183521E2,1.862627566E-1,-3.472768664E-1,-5.759209991E-1,6.978395472E-1
1.288186821E2,1.267198473E-1,5.103412271E-1,3.176946938E-2,5.267972921E-1
1.290190121E2,-2.145668715E-1,5.031726360E-1,1.480223298E0,1.578062944E0
1.292193421E2,4.457025230E-1,-2.637655735E-1,4.601061046E-1,6.927630506E-1
1.294196725E2,3.298114240E-1,-5.996981859E-1,-2.819757462E-1,7.402187589E-1
1.296200025E2,-5.667714477E-1,3.245991170E-1,-5.640276074E-1,8.629725387E-1
1.298203325E2,-1.637766808E-1,1.462420821E-1,-2.803266943E-1,3.560794901E-1
1.300206625E2,-3.429990634E-2,-6.131355762E-1,9.344898164E-2,6.211637712E-1
1.302209925E2,-7.564141601E-2,-7.334327698E-2,4.691131413E-1,4.807993339E-1
1.304213216E2,6.822398305E-1,-3.066072762E-1,2.928233743E-1,8.032463736E-1
1.306216516E2,-4.689827859E-1,1.093400568E-1,1.658473760E-1,5.093186170E-1
1.308219816E2,-2.487407625E-1,-2.884686589E-1,-4.543075860E-1,5.928587663E-1
1.310223116E2,2.715024054E-1,-2.450889349E-1,-1.470776051E-1,3.942257781E-1
1.312226406E2,3.123341203E-1,-2.032814920E-2,-7.122663260E-1,7.780033132E-1
1.314229709E2,5.753707886E-1,6.479500532E-1,2.767834365E-1,9.096702076E-1
1.316233009E2,5.986623168E-1,-9.293529987E-1,-9.781687856E-1,1.476112373E0
1.318236309E2,-3.383311331E-1,1.402878612E-1,-2.115546465E-1,4.229704577E-1
1.320239609E2,1.563694477E-1,8.105792999E-1,3.241133690E-1,8.868707243E-1
1.322242899E2,-3.248492777E-1,6.718860269E-1,9.584106207E-1,1.214705233E0
1.324246203E2,-1.529686898E-1,-3.651499748E-1,3.758010268E-1,5.458574319E-1
1.326249503E2,2.482427061E-1,3.966486081E-2,-5.330276489E-2,2.569804021E-1
1.328252793E2,-5.040097237E-1,5.133664012E-1,1.331582814E-1,7.316433498E-1
1.330256093E2,-3.999280035E-1,2.921126485E-1,-1.408151835E-1,5.148797174E-1
1.332259393E2,4.342013597E-1,-1.015617609E0,-3.897270858E-1,1.171280133E0
1.334262676E2,2.920055687E-1,5.682907104E-1,3.140296936E-1,7.119243164E-1
1.336265976E2,4.348869622E-1,4.180662930E-1,3.159482777E-1,6.809768053E-1
1.338269266E2,2.784373164E-1,-1.025352836E0,-4.807092845E-1,1.166172025E0
1.340272566E2,-5.345777273E-1,-4.247961938E-1,-6.589614153E-1,9.489232317E-1
1.342275856E2,4.413937032E-1,-8.081310987E-1,-9.476882219E-1,1.321369456E0
1.344279158E2,-8.461063504E-1,5.401170254E-1,2.707282603E-1,1.039671173E0
1.346282448E2,3.147071302E-1,1.076833531E-1,8.563128114E-2,3.434661536E-1
1.348285748E2,-3.033254743E-1,7.813303471E-1,2.039187551E-1,8.625927853E-1
1.350289038E2,7.156319916E-2,-4.500578046E-1,-7.221046686E-1,8.538784875E-1
1.352292338E2,1.268645287E0,4.564217925E-1,1.634394526E-1,1.358121560E0
1.354295630E2,4.998754859E-1,-2.790757418E-1,-3.898452222E-1,6.926312643E-1
1.356298920E2,1.469104737E-1,2.282154113E-1,1.234577894E-1,2.981724116E-1
1.358302220E2,-1.627567172E0,-3.908506632E-1,-4.382066727E-1,1.730249759E0
1.360305510E2,-5.778782964E-1,-1.755477786E-1,-3.369034268E-3,6.039633254E-1
1.362308800E2,1.793360263E-1,1.359100938E-1,4.577099979E-1,5.100307894E-1
1.364312105E2,-5.916506052E-1,1.472191453E0,9.849935770E-1,1.867514514E0
1.366315395E2,1.345725954E-1,-4.429468215E-1,2.650579512E-1,5.334485800E-1
1.368318685E2,3.964973092E-1,-1.024738431E0,-8.671280146E-1,1.399717815E0
1.370321985E2,-7.124120593E-1,4.208001196E-1,-1.429975033E-1,8.396737276E-1
1.372325275E2,2.144483030E-1,3.288834989E-1,-1.970825791E-1,4.393107937E-1
1.374328563E2,2.146967351E-1,-6.438091397E-1,1.208898425E-1,6.893469740E-1
1.376331853E2,-1.642848104E-1,2.986533940E-1,5.154057741E-1,6.179210796E-1
1.378335143E2,3.287917972E-1,-2.467557043E-1,1.997429878E-1,4.570445106E-1
1.380338433E2,-3.798601329E-1,3.536910415E-1,1.045751572E-1,5.294591929E-1
1.382341723E2,8.651401848E-3,1.513586758E-4,-4.536384940E-1,4.537210078E-1
1.384345022E2,4.729244113E-1,-7.760294080E-1,-2.787997127E-1,9.505832003E-1
1.386348312E2,-8.166655898E-1,2.075424604E-2,5.479463935E-2,8.187648483E-1
1.388351602E2,3.887780607E-1,4.609631598E-1,2.659697533E-1,6.590715627E-1
1.390354892E2,-5.225958824E-1,-2.284833342E-1,-2.407640070E-1,6.190948210E-1
1.392358182E2,1.388241947E-1,-3.767867088E-1,-3.428386748E-1,5.279950169E-1
1.394361468E2,3.333891332E-1,3.595085144E-1,3.067866564E-1,5.783707622E-1
1.396364758E2,-3.362619877E-1,-1.028344557E-1,1.307012439E0,1.353487556E0
1.398368038E2,2.844404578E-1,3.872458357E-3,4.772384763E-1,5.555879167E-1
1.400371328E2,6.641467214E-1,-2.580979764E-1,-4.944360852E-1,8.672787760E-1
1.402374618E2,-4.432676136E-1,-1.013050899E-1,-5.252159759E-2,4.577198016E-1
1.404377911E2,1.401129365E-1,2.158934623E-1,-1.273516864E-1,2.871586218E-1
1.406381201E2,-1.594113708E-1,-3.128478825E-1,4.352655411E-1,5.592332912E-1
1.408384491E2,-2.221463323E-1,5.672678947E-1,4.738000035E-1,7.717695904E-1
1.410387771E2,5.341410637E-1,-4.084478021E-1,-1.320847422E-1,6.852610175E-1
1.412391061E2,4.106128216E-1,-3.517776132E-1,-3.086991608E-1,6.226118777E-1
1.414394348E2,-6.150842309E-1,-2.719949782E-1,-1.700816453E-1,6.937129416E-1
1.416397638E2,6.840891242E-1,1.894100904E-1,2.708597481E-1,7.597493767E-1
1.418400918E2,-4.094987810E-1,-8.275739551E-1,-9.793774784E-2,9.285255544E-1
1.420404208E2,5.983942747E-1,6.124573350E-1,1.022223011E-1,8.623393149E-1
1.422407498E2,5.461876988E-1,-2.393546700E-1,-5.063388348E-1,7.822983293E-1
1.424410775E2,-2.623594999E-1,-2.851435244E-1,-5.677242875E-1,6.873501316E-1
1.426414065E2,-1.047610864E-1,4.453091621E-1,2.979312539E-1,5.459287199E-1
1.428417355E2,-9.932559133E-1,3.007274270E-1,9.475731254E-1,1.405307483E0
1.430420635E2,2.535354793E-1,1.234171614E-1,5.336447954E-1,6.035634206E-1
1.432423925E2,2.399993241E-1,7.446782589E-1,7.813994586E-2,7.862895370E-1
1.434427205E2,-6.940427423E-1,-2.288070172E-1,-6.030564904E-1,9.474835671E-1
1.436430495E2,-7.127529941E-3,8.259624839E-1,6.723893285E-1,1.065069122E0
1.438433775E2,1.274556279E0,-2.783381939E0,4.652945995E-1,3.096483133E0
1.440437065E2,-3.556062579E-1,1.149247885E0,8.738616109E-1,1.486896306E0
1.442440345E2,8.115411401E-1,-4.062417448E-1,-2.369400114E-1,9.379615910E-1
1.444443643E2,-1.595351286E-2,9.712669998E-2,-3.992834389E-1,4.112363980E-1
1.446446923E2,-4.263661802E-1,4.244925082E-1,-2.777267992E-1,6.626569128E-1
1.448450213E2,2.724196017E-1,-2.853219509E-1,-3.796187639E-1,5.474773612E-1
1.450453493E2,5.900236368E-1,3.754120171E-1,5.185188651E-1,8.705882425E-1
1.452456783E2,5.031422973E-1,-2.020595670E-1,1.791461408E-1,5.710285279E-1
1.454460061E2,-2.310374975E-1,8.111346364E-1,3.916661069E-2,8.443054821E-1
1.456463341E2,-4.887035191E-1,2.000270635E-1,-2.682608664E-1,5.922886527E-1
1.458466631E2,1.751939766E-2,-3.119200170E-1,-1.705066711E-1,3.559122802E-1
1.460469911E2,-8.187168241E-1,1.630862243E-2,-4.347889498E-2,8.200326966E-1
1.462473191E2,4.661895037E-1,3.303656876E-1,2.037559748E-1,6.066223192E-1
1.464476468E2,3.025393486E-1,-7.370480299E-1,-6.917904615E-1,1.055151126E0
1.466479758E2,-2.119109482E-1,1.873147637E-1,5.645462498E-2,2.884097698E-1
1.468483038E2,-1.379925176E-3,-6.763015985E-1,2.464756370E-1,7.198166405E-1
1.470486318E2,-2.031530142E0,1.713576913E-1,-1.373118013E-1,2.043363087E0
1.472489598E2,-4.684084058E-1,7.397522032E-2,-5.981674790E-2,4.779715589E-1
1.474492875E2,4.777316377E-2,-2.598543167E-1,-1.533193700E-2,2.646537538E-1
1.476496155E2,1.318189979E0,2.381715178E-1,-2.132169157E-1,1.356396677E0
1.478499445E2,9.831170738E-2,2.833184302E-1,-4.911235273E-1,5.754449094E-1
1.480502725E2,8.184364438E-1,2.252468318E-1,3.926173747E-1,9.352661389E-1
1.482506005E2,-4.217492044E-1,2.373795956E-2,7.341832519E-1,8.470306544E-1
1.484509289E2,-4.753244817E-1,3.912402391E-1,6.080895066E-1,8.653179391E-1
1.486512569E2,1.783954948E-1,-1.709819883E-1,-7.009167671E-1,7.431985652E-1
1.488515849E2,-8.534657210E-2,2.064579874E-1,-2.980820835E-1,3.725075387E-1
1.490519129E2,3.917381763E-1,-1.129871488E0,-5.289543867E-1,1.307616580E0
1.492522409E2,3.633343875E-1,3.337114751E-1,8.508849144E-1,9.835549620E-1
1.494525689E2,5.086662769E-1,4.621160924E-1,-1.951829195E-1,7.144151708E-1
1.496528969E2,2.194329649E-1,3.846424446E-2,1.116761491E-1,2.492025009E-1
1.498532249E2,-1.124696508E-1,-2.922191024E-1,-1.029397268E-2,3.132848417E-1
1.500535519E2,-4.566833079E-1,4.178283215E-1,-2.394503057E-1,6.636841107E-1
1.502538799E2,7.978150249E-1,4.202390313E-1,4.910994768E-1,1.026785447E0
1.504542089E2,1.574409157E-1,9.104321711E-3,2.458826303E-1,2.921109353E-1
1.506545369E2,6.560600400E-1,-4.478520900E-2,-4.358847737E-1,7.889334744E-1
1.508548649E2,3.836128712E-1,-5.581172705E-1,-2.330403030E-1,7.162133099E-1
1.510551919E2,2.363941818E-1,1.736374199E-1,-1.409138739E-1,3.254057201E-1
1.512555199E2,1.129112542E-1,3.402448893E-1,6.848830581E-1,7.730332071E-1
1.514558475E2,-4.656730592E-2,1.598242521E-1,4.448808134E-1,4.750065722E-1
1.516561755E2,4.990946352E-1,-2.748416960E-1,1.027956605E-1,5.789649045E-1
1.518565025E2,-2.797997296E-1,1.224360242E-1,-2.123009861E-1,3.719545367E-1
1.520568305E2,1.016401350E-1,-3.741513193E-1,-2.571606040E-1,4.652434879E-1
1.522571585E2,3.922403231E-2,-3.752976656E-1,1.199053749E-1,3.959345419E-1
1.524574852E2,1.102863625E-1,-4.064012170E-1,2.337838560E-1,4.816429406E-1
1.526578132E2,3.931249678E-1,6.168092489E-1,1.112182260E0,1.331146224E0
1.528581402E2,-9.732892513E-1,1.017248034E0,-2.299609333E-1,1.426522892E0
1.530584682E2,-3.432793021E-1,7.774341106E-1,4.205566049E-1,9.482153413E-1
1.532587952E2,-1.683947742E-1,-2.340529859E-1,4.393801987E-1,5.255402546E-1
1.534591235E2,6.339076757E-1,-1.389603496E0,-1.036302596E-1,1.530874275E0
1.536594505E2,9.030479938E-2,3.212608099E-1,4.822259843E-1,5.864344505E-1
1.538597785E2,3.194524348E-1,-5.260757208E-1,-3.298382163E-1,6.982827300E-1
1.540601055E2,6.337503195E-1,-4.879015684E-1,-2.507475205E-2,8.001975700E-1
1.542604335E2,-5.309170485E-1,5.961683020E-2,-3.428672850E-1,6.348110380E-1
1.544607598E2,-3.439427018E-1,3.567902148E-1,2.895127833E-1,5.739455472E-1
1.546610878E2,1.677218229E-1,-4.353069365E-1,1.582926065E-1,4.926248959E-1
1.548614148E2,-1.732769907E-1,2.541562915E-1,8.491584659E-2,3.191097570E-1
1.550617418E2,3.062252104E-1,-8.006793857E-1,-5.821454525E-1,1.036221350E0
1.552620698E2,-6.866758317E-2,-6.636927277E-2,-3.940542340E-1,4.054612888E-1
1.554623965E2,-5.942671746E-2,3.459282219E-1,6.163740158E-1,7.093058556E-1
1.556627235E2,2.931557000E-1,-5.003473163E-1,6.522908807E-1,8.727949899E-1
1.558630505E2,-1.027112901E-1,4.939602911E-1,6.900807619E-1,8.548437496E-1
1.560633785E2,2.769566700E-2,5.642130226E-2,-7.681244612E-2,9.925001359E-2
1.562637055E2,-1.105518341E-1,4.750874639E-2,1.825868934E-1,2.186704430E-1
1.564640333E2,-1.088343263E-1,2.687942982E-1,2.567820847E-1,3.873400629E-1
1.566643603E2,4.290913045E-1,1.830296963E-1,6.262612343E-1,7.809112312E-1
1.568646872E2,-3.871756196E-1,4.829159379E-1,6.587063670E-1,9.038843076E-1
1.570650143E2,-6.260110997E-3,4.725721478E-2,-1.613598317E-1,1.682540597E-1
1.572653423E2,1.064598799E0,-5.367936492E-1,3.519046903E-1,1.243123057E0
1.574656693E2,-6.860615611E-1,-1.215106994E-1,-4.682109952E-1,8.394443708E-1
1.576659963E2,8.893880248E-1,3.373283744E-1,8.739420176E-1,1.291733773E0
1.578663233E2,-1.317621768E-1,4.683236405E-2,9.206442833E-1,9.312037575E-1
1.580666503E2,2.809245884E-1,6.955385208E-1,7.760016918E-1,1.079291936E0
1.582669773E2,-9.319283366E-1,-8.784402013E-1,-9.163469672E-1,1.574750576E0
1.584673043E2,-1.670428365E-1,2.540181577E-2,-2.295496166E-1,2.850291002E-1
1.586676313E2,4.750732183E-1,-9.523500502E-2,-2.563168854E-2,4.852022799E-1
1.588679583E2,-6.722952127E-1,2.803770304E-1,6.619201899E-1,9.842410629E-1
1.590682843E2,5.742278099E-1,1.011407897E-1,5.952371955E-1,8.332312740E-1
1.592686113E2,-4.496878088E-1,3.127887249E-1,-2.905111909E-1,6.200424693E-1
1.594689380E2,1.699337810E-1,-1.636018977E-2,-3.969533741E-1,4.321077724E-1
1.596692650E2,3.449335992E-1,-5.201323330E-2,-3.641439974E-1,5.042672061E-1
1.598695920E2,-7.877857089E-1,-5.975285769E-1,2.103434950E-1,1.010886299E0
1.600699190E2,2.285492271E-1,8.717395365E-2,5.402714014E-2,2.505054476E-1
1.602702450E2,-3.721656501E-1,-3.377158344E-1,-4.241496027E-1,6.576185379E-1
1.604705725E2,1.191486940E-1,2.153676003E-1,6.523372978E-2,2.546272846E-1
1.606708995E2,-4.107560217E-1,-2.920856774E-1,-5.688050389E-1,7.599827134E-1
1.608712265E2,3.219509125E-1,1.667892188E-1,3.450790048E-1,5.005502503E-1
1.610715525E2,1.171873212E-1,5.823700875E-2,6.879881024E-1,7.003228159E-1
1.612718795E2,1.479113251E-1,6.587198973E-1,7.733010054E-1,1.026539872E0
1.614722056E2,-5.388264060E-1,-1.232811138E-1,-6.986799240E-1,8.908904338E-1
1.616725316E2,-9.614095092E-2,4.173420370E-2,-3.764474094E-1,3.907652470E-1
1.618728586E2,7.312120870E-3,-3.029225469E-1,-4.762609005E-1,5.644820474E-1
1.620731846E2,3.543874919E-1,3.758390248E-1,6.444409490E-1,8.259234854E-1
1.622735119E2,1.537393779E-1,2.415482104E-1,6.098510623E-1,6.737207526E-1
1.624738379E2,-6.460393965E-2,5.801856518E-1,-2.041487247E-1,6.184381629E-1
1.626741649E2,2.039602101E-1,2.230443992E-2,9.795629233E-2,2.273602660E-1
1.628744909E2,-8.085801005E-1,-5.241929889E-1,-1.115177035E0,1.473838488E0
1.630748179E2,2.754771411E-1,-6.936883181E-2,4.251441360E-1,5.113191043E-1
1.632751444E2,2.275385708E-1,3.291896880E-1,5.936186314E-1,7.159069293E-1
1.634754714E2,-4.169717729E-1,-6.360824704E-1,-1.010751605E0,1.264944732E0
1.636757974E2,-5.300213695E-1,3.787196428E-2,-4.198192656E-1,6.772039232E-1
1.638761234E2,-4.288550019E-1,-2.623931468E-1,-6.196306348E-1,7.979404111E-1
1.640764504E2,9.139162302E-1,5.354002118E-1,8.851047754E-1,1.380328485E0
1.642767763E2,-2.611744404E-1,3.309500813E-1,4.188950658E-1,5.943173570E-1
1.644771023E2,1.180813909E0,-1.134390593E0,-1.290987432E-1,1.642507226E0
1.646774283E2,-5.843763947E-1,1.562349647E-1,-5.417201519E-1,8.120134592E-1
1.648777553E2,-3.968181312E-1,-1.445023417E-1,-1.970135570E-1,4.660041820E-1
1.650780813E2,5.237348676E-1,7.459386587E-1,1.621184051E-1,9.257456839E-1
1.652784069E2,-5.205840468E-1,4.014012516E-1,4.753661156E-1,8.112358833E-1
1.654787329E2,4.355589449E-1,2.555183470E-1,6.256414056E-1,8.040077043E-1
1.656790589E2,-3.754882514E-1,8.417662233E-2,-6.808305383E-1,7.820532927E-1
1.658793859E2,1.181535646E-1,-6.413237005E-2,-3.933903202E-2,1.400742131E-1
1.660797119E2,-8.383828998E-1,2.832066119E-1,-9.862331674E-3,8.849797383E-1
1.662800376E2,1.549630404E0,-8.727079034E-1,5.268956423E-1,1.854883417E0
1.664803636E2,-1.787589341E-1,3.737516999E-1,7.194731236E-1,8.302328982E-1
1.666806896E2,-1.282086503E-2,5.191656351E-1,-4.945509732E-1,7.171317845E-1
1.668810156E2,2.026977837E-1,-4.748262465E-2,-7.316704094E-2,2.206680925E-1
1.670813416E2,-6.037985682E-1,-5.512373894E-2,-9.382843971E-1,1.117134257E0
1.672816688E2,-4.437966049E-1,-3.692477047E-1,-1.481567789E-2,5.775108642E-1
1.674819948E2,5.366399884E-1,5.569395423E-1,7.837384343E-1,1.101094939E0
1.676823208E2,-3.347742837E-3,-2.053235322E-1,-3.218527734E-1,3.817828807E-1
1.678826468E2,3.850978017E-1,-1.415268928E-1,1.021504924E-1,4.228059855E-1
1.680829728E2,-1.953487247E-1,-1.411512122E-2,-5.316780210E-1,5.666055761E-1
1.682832969E2,3.223524690E-1,3.898324072E-1,6.435728073E-1,8.185758232E-1
1.684836229E2,3.821556568E-1,-5.108411983E-2,4.788616300E-1,6.147853235E-1
1.686839489E2,2.102363557E-1,2.131055146E-1,5.633751154E-1,6.379692832E-1
1.688842749E2,-5.318638682E-1,-3.199256957E-1,-4.635586143E-1,7.746729722E-1
1.690846009E2,5.433589220E-1,-3.511083722E-1,-2.226892859E-1,6.841831079E-1
1.692849258E2,-5.264687538E-1,-1.381351054E-1,-4.042883217E-1,6.780115804E-1
1.694852518E2,7.034658194E-1,2.229253054E-1,8.802422881E-1,1.148645436E0
1.696855778E2,-2.052278630E-2,-1.206458658E-1,1.747419089E-1,2.133338802E-1
1.698859038E2,-3.378027380E-1,4.092753530E-1,-1.786042005E-1,5.599254100E-1
1.700862288E2,-2.371173352E-1,1.964475811E-1,-3.194797933E-1,4.437156985E-1
1.702865556E2,-1.911413521E-1,1.549789868E-2,-6.892483681E-2,2.037788862E-1
1.704868816E2,3.498154283E-1,-5.230227709E-1,1.003132686E-1,6.371706244E-1
1.706872066E2,-6.045730412E-2,2.770734131E-1,6.605140120E-2,2.911830172E-1
1.708875326E2,9.314558506E-1,6.162179708E-1,-1.118765958E-2,1.116897378E0
1.710878576E2,-3.711691201E-1,-2.419979572E-1,-2.731141448E-1,5.205005889E-1
1.712881832E2,-1.184579879E-1,-2.757635899E-2,-8.850487880E-3,1.219470443E-1
1.714885083E2,-1.183785424E-1,-2.412043279E-3,4.666412771E-1,4.814284773E-1
1.716888343E2,4.100764915E-2,1.697455049E-1,2.695561945E-1,3.211786197E-1
1.718891593E2,2.851168215E-1,-1.089345440E-1,-2.280139178E-1,3.809838363E-1
1.720894853E2,2.246593386E-1,-7.406318784E-1,-3.380713463E-1,8.445706796E-1
1.722898099E2,-2.344901860E-1,2.503290772E-1,-4.439058006E-1,5.609836486E-1
1.724901359E2,2.958061397E-1,2.586036921E-1,5.339207649E-1,6.629091379E-1
1.726904609E2,6.603544205E-2,1.791422367E-1,6.869500279E-1,7.129887527E-1
1.728907859E2,-7.546775341E-1,1.394031167E0,1.131570339E0,1.947642808E0
1.730911119E2,1.908667535E-1,4.066239893E-1,-2.570112348E-1,5.175209765E-1
1.732914373E2,-4.636698589E-2,-1.643883884E-1,-2.369807214E-1,2.921186436E-1
1.734917623E2,-4.027299583E-1,1.900319010E-1,-3.728256822E-1,5.807775237E-1
1.736920883E2,9.677286744E-1,-7.408142686E-1,3.764082491E-1,1.275534295E0
1.738924133E2,9.051246196E-2,-3.552193344E-1,2.605452836E-1,4.497300591E-1
1.740927383E2,-7.651316524E-1,-5.823129416E-1,-1.037268996E0,1.414369746E0
1.742930624E2,2.202338539E-3,6.008173898E-2,2.325424366E-2,6.446258994E-2
1.744933874E2,2.375245392E-1,-8.505881429E-1,-7.439406216E-2,8.862576217E-1
1.746937134E2,-4.747406542E-1,4.266683757E-1,3.079827428E-1,7.087157127E-1
1.748940384E2,8.740469068E-2,6.907218695E-1,5.581448674E-1,8.923351242E-1
1.750943634E2,2.180606872E-1,-2.327432185E-1,8.252745122E-2,3.294399024E-1
1.752946889E2,2.821398973E-1,-1.695169806E-1,-1.217455193E-1,3.509428727E-1
1.754950139E2,-2.078146785E-1,7.815513760E-2,-2.596567273E-1,3.416383793E-1
1.756953389E2,3.069643676E-1,4.556687176E-1,3.128191233E-1,6.322316878E-1
1.758956639E2,-4.943591058E-1,-1.407271326E-1,4.239526689E-1,6.662814096E-1
1.760959889E2,6.437059492E-2,2.615900636E-1,3.629573584E-1,4.520077199E-1
1.762963141E2,-1.159873083E-1,-3.932432830E-1,-7.923316360E-1,8.921226130E-1
1.764966391E2,-3.578496873E-1,1.929475069E-1,-5.475218296E-1,6.819569584E-1
1.766969641E2,1.621852517E-1,-2.454043925E-1,-4.561213851E-1,5.427468007E-1
1.768972891E2,2.115502059E-1,3.699102998E-1,5.063706636E-1,6.618144517E-1
1.770976141E2,7.411938906E-2,1.516883522E-1,4.864166677E-1,5.148827193E-1
1.772979390E2,2.575957775E-1,4.416537583E-1,-1.506023705E-1,5.330053478E-1
1.774982640E2,-2.905596793E-1,-2.554002702E-1,-6.498439610E-2,3.922718407E-1
1.776985890E2,-6.416785717E-1,-5.555802211E-2,-7.342730165E-1,9.767266485E-1
1.778989130E2,-2.915053964E-1,-2.588142157E-1,2.941956744E-3,3.898318220E-1
1.780992380E2,-7.396420836E-2,4.461337328E-1,5.607535839E-1,7.203822551E-1
1.782995631E2,4.093627036E-1,-7.934182882E-1,-2.052094489E-1,9.160793203E-1
1.784998881E2,-4.023345709E-1,4.330275357E-1,1.849414110E-1,6.193458477E-1
1.787002121E2,1.512175798E-1,-2.457645833E-1,-6.450130343E-1,7.066178609E-1
1.789005371E2,3.686734736E-1,1.980282515E-1,6.387181282E-1,7.636073375E-1
1.791008621E2,5.516627431E-1,-9.659051150E-2,5.047921538E-1,7.539738905E-1
1.793011868E2,-3.089015484E-1,2.589771450E-1,7.904627919E-2,4.107768767E-1
1.795015108E2,-2.304287255E-1,-5.456327796E-1,-8.717148304E-1,1.053897183E0
1.797018358E2,-1.365574729E-2,2.143869177E-2,-4.013396800E-1,4.021437997E-1
1.799021608E2,-1.222950369E-1,8.339539170E-2,-1.485403329E-1,2.097024032E-1
1.801024848E2,4.760213196E-1,4.897531867E-1,9.240953922E-1,1.149089542E0
1.803028103E2,-2.883390151E-2,1.739628054E-2,4.396434426E-1,4.409312657E-1
1.805031343E2,1.510179490E-1,3.281677663E-1,-2.658755481E-1,4.485424293E-1
1.807034593E2,-6.510399282E-2,-4.614434242E-1,-3.148785233E-1,5.624207038E-1
1.809037843E2,-5.608932972E-1,-3.008753955E-1,-6.545227766E-1,9.129771955E-1
1.811041083E2,-3.892567456E-1,-3.910156488E-1,1.263443530E-1,5.660185042E-1
1.813044326E2,3.537213504E-1,4.426614940E-1,6.083151102E-1,8.313334261E-1
1.815047566E2,-7.347892225E-2,-6.983191967E-1,-5.584974289E-1,8.972002177E-1
1.817050816E2,-9.852395207E-2,6.365565211E-2,-3.591805696E-2,1.226748466E-1
1.819054056E2,-3.214985430E-1,-1.755767465E-1,-4.294945002E-1,5.644944931E-1
1.821057296E2,1.877915263E-1,2.703544199E-1,5.835298300E-1,6.699733071E-1
1.823060545E2,3.950916529E-1,1.010786742E-2,6.375051737E-1,7.500749493E-1
1.825063785E2,-1.611618698E-1,9.267228842E-2,4.040043354E-1,4.447255382E-1
1.827067035E2,-6.865870357E-1,-2.724427581E-1,-7.957881093E-1,1.085774161E0
1.829070275E2,2.605465055E-1,1.149833482E-2,-5.779579878E-1,6.340758069E-1
1.831073515E2,-1.690069437E-1,1.351292431E-1,-1.081369370E-1,2.419025765E-1
1.833076768E2,-1.461441368E-1,2.760955989E-1,8.114489317E-1,8.695034544E-1
1.835080008E2,3.064905405E-1,2.624486014E-2,3.212609589E-1,4.447851704E-1
1.837083248E2,-1.454509199E-1,2.686124742E-1,-4.092328548E-1,5.106663890E-1
1.839086488E2,4.719339907E-1,-3.282378912E-1,-1.571270078E-2,5.750727726E-1
1.841089738E2,5.548865199E-1,-1.528738856E0,-1.014859200E0,1.916997844E0
1.843092978E2,2.490468472E-1,1.050776914E-1,3.398935497E-1,4.342732762E-1
1.845096218E2,1.796551645E-1,6.828358173E-1,7.227327824E-1,1.010387750E0
1.847099458E2,-6.403838992E-1,-6.686537862E-1,-1.323087931E0,1.614853274E0
1.849102698E2,-2.730455399E-1,-1.410041600E-1,-3.282864988E-1,4.496755111E-1
1.851105948E2,-3.393502235E-1,-1.303723454E-1,-3.921752274E-1,5.347494102E-1
1.853109195E2,-9.779953957E-1,4.131281748E-2,-7.582032681E-2,9.817996052E-1
1.855112435E2,3.880559206E-1,3.778367341E-1,7.567182183E-1,9.305753366E-1
1.857115675E2,-6.315551400E-1,-6.226743460E-1,-4.485747814E-1,9.938835800E-1
1.859118915E2,5.083156228E-1,-2.867904902E-1,-2.573130131E-1,6.378428837E-1
1.861122155E2,-2.816950083E-1,-1.526570618E-1,-4.257521331E-1,5.328425049E-1
1.863125389E2,2.130398899E-1,2.227597982E-1,-8.735549450E-2,3.203730713E-1
1.865128629E2,-2.593974471E-1,-1.933087129E-3,6.756569147E-1,7.237423843E-1
1.867131869E2,-5.541753396E-2,8.534620404E-1,7.637251616E-1,1.146623164E0
1.869135109E2,6.799650937E-2,-1.599791460E-2,-6.080288887E-1,6.120282576E-1
1.871138349E2,6.302266382E-3,-2.691683918E-2,-3.161300421E-1,3.173364749E-1
1.873141590E2,-2.234053314E-1,-1.571019441E-1,-7.174496055E-1,7.676749959E-1
1.875144830E2,3.144016862E-1,-2.081924230E-1,3.571023941E-1,5.193405676E-1
1.877148070E2,2.956154644E-1,4.219065607E-2,6.235606670E-1,6.913728804E-1
1.879151310E2,1.385368109E-1,2.511182129E-1,-4.051421285E-1,4.963798436E-1
1.881154550E2,-4.254806638E-1,-3.686351180E-1,-2.867288291E-1,6.317745381E-1
1.883157787E2,-1.768637151E-1,7.897876203E-2,-2.200170308E-1,2.931312205E-1
1.885161018E2,-1.200711587E-3,-5.448014289E-2,3.334257603E-1,3.378494713E-1
1.887164258E2,-8.763816953E-2,3.274872303E-1,4.045098126E-1,5.277845425E-1
1.889167498E2,-4.840449691E-1,-3.318485618E-1,3.778977320E-2,5.880910363E-1
1.891170738E2,8.207289577E-1,1.807296574E-1,3.355764151E-1,9.049147813E-1
1.893173978E2,3.440136462E-2,-1.957397312E-1,-3.892662823E-1,4.370649091E-1
1.895177208E2,3.941944242E-1,4.625371844E-2,6.844088435E-2,4.027565085E-1
1.897180448E2,-9.601530433E-2,1.577770221E-3,4.665591121E-1,4.763389897E-1
1.899183688E2,-1.740769893E-1,3.062546849E-1,6.154826880E-1,7.091640638E-1
1.901186918E2,-5.264582634E-1,-4.504778683E-1,-8.911736608E-1,1.128839717E0
1.903190156E2,-1.300585419E-1,6.610791385E-2,-2.244375348E-1,2.676895359E-1
1.905193396E2,-2.751580477E-1,-3.825185597E-1,-8.679590821E-1,9.876160023E-1
1.907196626E2,1.058137894E0,-1.718557253E-2,8.293208480E-1,1.344516350E0
1.909199866E2,7.957559079E-2,5.142581835E-2,3.791950047E-1,3.908525822E-1
1.911203106E2,-1.450334638E-1,4.014926851E-1,-4.244251847E-1,6.019699488E-1
1.913206345E2,-4.308334589E-1,-7.463537157E-2,-5.259349942E-1,6.839557925E-1
1.915209585E2,-1.633272171E-1,-1.588129848E-1,-4.349949658E-1,4.910376404E-1
1.917212815E2,-3.499345183E-1,5.064024925E-1,6.489170790E-1,8.944221749E-1
1.919216055E2,1.562636197E-1,4.527033865E-1,7.700752616E-1,9.068487104E-1
1.921219295E2,-8.425663710E-1,6.553395092E-2,-1.463945396E-2,8.452378966E-1
1.923222523E2,1.015148520E0,1.857980788E-1,1.978423893E-1,1.050804004E0
1.925225763E2,1.423821747E-1,1.993402243E-1,-2.423405349E-1,3.445840152E-1
1.927228993E2,1.792749763E-1,-2.949840948E-2,3.765675798E-2,1.855470417E-1
1.929232233E2,5.985571444E-2,-1.218100637E-2,7.318716049E-1,7.344161828E-1
1.931235463E2,1.434233338E-1,8.131601848E-3,4.084477127E-1,4.329733359E-1
1.933238687E2,-8.625064492E-1,-3.448411822E-1,-6.384561658E-1,1.127146437E0
1.935241927E2,2.730851173E-1,-6.276570261E-2,-3.572836220E-1,4.540557249E-1
1.937245157E2,-7.434234023E-1,2.361247092E-1,-7.966300249E-1,1.114922701E0
1.939248397E2,1.081727266E0,-1.825308353E-1,1.842030436E-1,1.112376800E0
1.941251627E2,1.476505697E-1,-1.577018499E-1,6.159743071E-1,6.527594589E-1
1.943254869E2,2.332407236E-1,-2.560960948E-1,-6.802060604E-1,7.633260965E-1
1.945258099E2,-1.521956772E-1,1.142277941E-1,2.390691489E-1,3.055578031E-1
1.947261329E2,-3.137245178E-1,2.909190357E-1,-2.102547437E-1,4.767221577E-1
1.949264569E2,-1.043276310E0,8.843360543E-1,2.701703906E-1,1.394083124E0
1.951267799E2,5.754588246E-1,-4.954567552E-1,3.953389525E-1,8.561093052E-1
1.953271031E2,-4.495732188E-1,-1.578672975E-1,-3.400985003E-1,5.854102430E-1
1.955274271E2,8.586859107E-1,-3.907952905E-1,-4.046905786E-2,9.442987858E-1
1.957277501E2,-4.395879805E-1,-7.124769036E-3,-4.079678655E-1,5.997717351E-1
1.959280731E2,6.980527043E-1,1.057813987E-1,2.722469270E-1,7.566939088E-1
1.961283961E2,5.385452509E-1,2.384724915E-1,5.315787196E-1,7.933952682E-1
1.963287199E2,-3.870197013E-2,-4.886306450E-2,3.257915974E-1,3.317010800E-1
1.965290429E2,-5.444379449E-1,2.908277810E-1,-5.969072580E-1,8.586569447E-1
1.967293659E2,1.743794531E-1,-1.054085866E-1,-8.766275644E-2,2.218195723E-1
1.969296889E2,-4.192922115E-1,-3.676310182E-2,-5.130695701E-1,6.636247946E-1
1.971300119E2,1.286187291E0,-1.251149297E0,-6.105833054E-1,1.895379720E0
1.973303359E2,-1.669075042E-1,-3.055149317E-1,4.957323074E-1,6.057623371E-1
1.975306589E2,-2.429717630E-1,-3.436352909E-1,-8.657370210E-1,9.626115936E-1
1.977309819E2,3.157286048E-1,-4.535628557E-1,-5.206406116E-2,5.550806090E-1
1.979313049E2,-6.088699698E-1,2.496790737E-1,-3.930127323E-1,7.664993723E-1
1.981316279E2,3.495151103E-1,2.390021533E-1,6.415219307E-1,7.686567694E-1
1.983319513E2,3.154005110E-1,-1.796085238E-1,4.626179039E-1,5.880068276E-1
1.985322743E2,-1.800265312E-1,4.355289508E-3,8.221473694E-1,8.416381749E-1
1.987325983E2,4.028058052E-2,-1.051937699E0,-8.078765273E-1,1.326973976E0
1.989329213E2,-1.412674040E-1,2.203635722E-1,-7.000151277E-1,7.473538401E-1
1.991332443E2,-1.999724805E-1,-7.083143592E-1,-3.417599797E-1,8.114789635E-1
1.993335674E2,4.626266062E-1,5.968056321E-1,8.785566688E-1,1.158474065E0
1.995338904E2,1.507379580E-3,5.992857367E-2,2.987957597E-1,3.047500814E-1
1.997342134E2,2.070445418E-1,5.788600445E-1,-4.243276119E-1,7.469941872E-1
1.999345364E2,1.729999036E-1,-5.452050567E-1,5.221749842E-2,5.743728646E-1
2.001348594E2,-5.336208940E-1,-2.587755620E-1,-9.591730833E-1,1.127709650E0
2.003351821E2,-5.225241184E-1,-1.888315976E-1,2.821190655E-1,6.231211710E-1
2.005355051E2,-3.791063726E-1,4.811789691E-1,3.816335201E-1,7.217333204E-1
2.007358281E2,6.240664124E-1,-4.278950691E-1,-3.806596398E-1,8.470270590E-1
2.009361511E2,4.305959940E-1,1.869272441E-1,3.328847587E-1,5.754710829E-1
2.011364731E2,-4.083294049E-2,2.187809497E-1,-3.537515104E-1,4.179384693E-1
2.013367966E2,4.648704827E-2,2.280680984E-1,3.748976588E-1,4.412758296E-1
2.015371196E2,1.428685635E-1,-2.405883372E-1,4.031767845E-1,4.907603224E-1
2.017374426E2,7.025951892E-2,-4.119725898E-2,2.862002552E-1,2.975637750E-1
2.019377656E2,-7.853445411E-1,-6.488549709E-2,-7.013677359E-1,1.054937381E0
2.021380886E2,-9.728938341E-2,1.460885350E-2,-2.662297487E-1,2.838255130E-1
2.023384107E2,-2.649672888E-2,-1.487274617E-1,-4.116743505E-1,4.385176226E-1
2.025387337E2,4.220350087E-1,4.254252613E-1,4.559629858E-1,7.529956480E-1
2.027390557E2,7.097814232E-2,-7.204864174E-2,2.714554369E-1,2.896842379E-1
2.029393787E2,3.371315598E-1,4.897854030E-1,8.349972218E-2,6.004328716E-1
2.031397017E2,-6.077970378E-3,-4.038830996E-1,-1.390779614E-1,4.272015674E-1
2.033400250E2,-5.990018845E-1,-7.826707512E-2,-6.467785835E-1,8.850149879E-1
2.035403480E2,5.457646772E-2,-3.291422725E-1,1.156386584E-1,3.531083767E-1
2.037406700E2,1.003808975E-1,2.894949317E-1,5.073791146E-1,5.927201751E-1
2.039409930E2,1.087232009E-1,-2.395852506E-1,-1.617313921E-1,3.088346968E-1
2.041413160E2,-2.357417792E-1,-3.758172393E-1,-3.388624489E-1,5.582477435E-1
2.043416383E2,-1.392442435E-1,-2.335535884E-1,-4.306061566E-1,5.092719314E-1
2.045419613E2,-3.572370857E-2,3.166890442E-1,-1.150685623E-1,3.388346324E-1
2.047422843E2,8.408574760E-2,1.440684050E-1,7.951304913E-1,8.124399156E-1
2.049426063E2,5.496445894E-1,1.131924391E-1,4.278727472E-1,7.056888767E-1
2.051429293E2,-8.445805907E-1,2.558955848E-1,-5.287437439E-1,1.028770563E0
2.053432520E2,7.700851560E-2,5.906794220E-2,-3.960367441E-1,4.077553629E-1
2.055435740E2,-4.159362316E-1,9.511155635E-2,-6.234829426E-1,7.554999250E-1
2.057438970E2,6.769625545E-1,-3.839420378E-1,2.363538146E-1,8.133590316E-1
2.059442190E2,-2.922409214E-3,2.784920335E-1,2.685353160E-1,3.868818542E-1
2.061445420E2,1.374523621E-2,3.031111062E-1,-3.556588292E-1,4.675023818E-1
2.063448656E2,-1.199316327E-2,-4.266374707E-1,-2.250323072E-2,4.273988334E-1
2.065451876E2,-7.003186941E-1,1.152377576E-1,-8.722712398E-1,1.124536851E0
2.067455106E2,-3.632311225E-1,-2.256679833E-1,3.634353280E-1,5.612023919E-1
2.069458326E2,2.608349919E-1,2.842972577E-1,6.892077327E-1,7.898525954E-1
2.071461556E2,-6.505809426E-1,2.461652309E-1,-1.899085492E-1,7.210534938E-1
2.073464775E2,1.097822070E0,-2.839818895E-1,-2.368359566E-1,1.158425777E0
2.075468005E2,-4.033198655E-1,5.017626286E-2,-6.194536686E-1,7.408828644E-1
2.077471225E2,8.546926826E-2,5.647898316E-1,3.854381740E-1,6.890973340E-1
2.079474455E2,2.797921300E-1,2.147545516E-1,1.026156783E0,1.085081055E0
2.081477685E2,2.845184207E-1,-1.264345199E-1,4.552513063E-1,5.515343792E-1
2.083480894E2,-1.237248182E0,6.781499088E-2,-7.444840074E-1,1.445558153E0
2.085484124E2,4.395976663E-1,-1.066110581E-1,1.478401273E-1,4.758873072E-1
2.087487344E2,3.338525593E-1,3.218928874E-1,-4.441576302E-1,6.421437244E-1
2.089490564E2,6.637731194E-1,-1.337814480E-1,2.298225164E-1,7.150598709E-1
2.091493794E2,4.130986333E-1,8.848454803E-2,4.143799543E-1,5.917691633E-1
2.093497019E2,-2.611278296E-1,-3.891708702E-2,-2.666008770E-1,3.752043585E-1
2.095500249E2,3.702996373E-1,4.207409918E-1,2.095091492E-1,5.983635076E-1
2.097503469E2,-3.708395958E-1,-9.909635037E-2,-5.920347571E-1,7.055829123E-1
2.099506699E2,-4.741562009E-1,1.961370111E-1,4.756734967E-1,6.996850044E-1
2.101509919E2,1.131850332E-1,-3.386498690E-1,3.217630684E-1,4.806517010E-1
2.103513154E2,2.337821871E-1,2.729215100E-2,1.413569301E-1,2.745555576E-1
2.105516374E2,-4.351774231E-2,-4.380878061E-2,-3.879171908E-1,3.928011584E-1
2.107519594E2,2.674841583E-1,4.212762043E-2,-3.294846714E-1,4.264770334E-1
2.109522824E2,3.269183338E-1,7.017840445E-2,1.234917492E-1,3.564418852E-1
2.111526044E2,5.562862009E-2,1.218143553E-1,4.916158020E-1,5.095285834E-1
2.113529261E2,1.030004382E0,-8.465885520E-1,7.221030593E-1,1.516263180E0
2.115532491E2,-7.711744308E-1,2.964287102E-1,-5.356884003E-1,9.846532614E-1
2.117535711E2,-3.984826505E-1,1.622551829E-1,-1.193766743E-1,4.465041517E-1
2.119538931E2,-1.137088239E-1,1.295926124E-1,-1.560653448E-1,2.325517871E-1
2.121542161E2,6.648603678E-1,-3.926431537E-1,-6.941604614E-2,7.752590162E-1
2.123545384E2,-2.189575285E-1,3.395962417E-1,6.424964964E-2,4.091405921E-1
2.125548604E2,-3.690833151E-1,2.302710116E-1,-8.914128542E-1,9.918992433E-1
2.127551824E2,4.676760733E-1,-3.515409529E-1,3.991305828E-1,7.082423125E-1
2.129555054E2,-5.041055083E-1,7.817199230E-1,-2.768654823E-1,9.704962117E-1
2.131558274E2,-9.201360941E-1,-5.685474277E-1,-4.768348858E-2,1.082668151E0
2.133561493E2,1.630503833E-1,1.181811653E-2,5.704883933E-1,5.934493258E-1
2.135564713E2,-6.479530334E-1,3.290173709E-1,-9.800687432E-2,7.332809225E-1
2.137567943E2,4.113052785E-1,-5.579718351E-1,2.157209627E-2,6.935199754E-1
2.139571163E2,-1.414337754E-1,-2.875024974E-1,-6.173585653E-1,6.955521526E-1
2.141574383E2,2.552610338E-1,-2.639582194E-2,7.240839005E-1,7.682137916E-1
2.143577603E2,2.180506587E-1,-4.629550874E-1,5.137177110E-1,7.251064676E-1
2.145580823E2,-1.502932608E-1,3.195673227E-2,-4.815815762E-2,1.610233062E-1
2.147584043E2,-2.315243147E-2,-6.522256136E-1,-4.378170669E-1,7.858868049E-1
2.149587273E2,-3.971927762E-1,2.088995576E-1,-5.231952667E-1,6.892999447E-1
2.151590493E2,2.799637914E-1,8.004371822E-2,-1.115481555E-1,3.118167929E-1
2.153593705E2,3.914557397E-1,5.933806300E-1,8.669987321E-1,1.121171249E0
2.155596925E2,9.974880517E-2,1.301384065E-2,1.023159623E-1,1.434842860E-1
2.157600145E2,1.517249197E-1,4.424785674E-1,-1.548180729E-1,4.927234209E-1
2.159603365E2,-7.760555297E-2,-2.458876073E-1,2.323926836E-1,3.471162582E-1
2.161606585E2,-5.993597507E-1,-2.921359986E-2,-8.037606478E-1,1.003053700E0
2.163609810E2,-2.729940042E-2,-3.171246350E-1,5.163909867E-3,3.183393745E-1
2.165613030E2,2.231561393E-1,3.743324876E-1,4.740258157E-1,6.439129970E-1
2.167616250E2,-5.109448433E-1,-7.088511586E-1,-5.914248824E-1,1.055138848E0
2.169619480E2,8.641850948E-2,-2.894509584E-2,-1.310198605E-1,1.596000664E-1
2.171622700E2,-4.290189445E-1,5.937741697E-2,-5.274383426E-1,6.824764740E-1
2.173625925E2,5.419843197E-1,1.799559891E-1,6.102505922E-1,8.357852273E-1
2.175629145E2,1.765475720E-1,-3.706658632E-2,6.635306478E-1,6.876160975E-1
2.177632365E2,-5.744060501E-2,3.144189417E-1,3.099623322E-1,4.452362760E-1
2.179635585E2,-6.571279764E-1,-4.033864737E-1,-5.334705710E-1,9.376186190E-1
2.181638805E2,3.281507269E-2,-2.414594777E-2,-4.495722055E-1,4.514144701E-1
2.183642021E2,-1.954465955E-1,-2.267865688E-1,-4.040620029E-1,5.028892738E-1
2.185645241E2,8.973351121E-1,-2.232885659E-1,4.400912821E-1,1.024084188E0
2.187648461E2,1.819141805E-1,3.005886078E-1,2.848404050E-1,4.523055787E-1
2.189651671E2,2.501734495E-1,1.614671350E-1,-4.023197889E-1,5.005193334E-1
2.191654891E2,3.298303857E-2,-4.782245159E-1,9.210747480E-2,4.881294453E-1
2.193658109E2,-3.560881615E-1,5.177421123E-2,-4.898706079E-1,6.078260937E-1
2.195661329E2,-7.204689085E-2,5.327600241E-1,5.316638350E-1,7.561021302E-1
2.197664549E2,1.181131378E-1,-2.073902637E-1,2.054130137E-1,3.148903634E-1
2.199667769E2,-4.530020431E-2,9.132145345E-2,2.999283969E-1,3.167787235E-1
2.201670989E2,8.889161944E-1,2.001329809E-1,-4.759241641E-1,1.027973259E0
2.203674209E2,-2.066147327E-1,-8.644583821E-2,-5.373997688E-1,5.822036089E-1
2.205677429E2,3.762314618E-1,-9.968333691E-2,3.093548417E-1,4.971793425E-1
2.207680649E2,-1.483457834E-1,-3.701971471E-2,5.408844352E-1,5.620790896E-1
2.209683869E2,-1.853636466E-2,9.251647443E-2,4.263274670E-1,4.366440243E-1
2.211687089E2,2.212985009E-1,7.128475234E-3,-9.561514109E-2,2.411764849E-1
2.213690306E2,-5.608057976E-1,-3.463428840E-2,-3.583415151E-1,6.664167750E-1
2.215693516E2,-1.713634282E-1,-2.751263417E-2,-2.802573442E-1,3.296460960E-1
2.217696736E2,1.009004116E-1,-3.787224591E-1,6.975778192E-2,3.980926302E-1
2.219699956E2,1.381950378E-1,5.276340991E-3,2.644686103E-1,2.984448929E-1
2.221703176E2,3.191393316E-1,-1.354647726E-1,-2.792007029E-1,4.451445272E-1
2.223706394E2,3.128020465E-1,-8.366879076E-2,1.342126913E-2,3.240767152E-1
2.225709614E2,-1.927451044E-1,-1.818505079E-1,-6.679760218E-1,7.186182910E-1
2.227712824E2,-7.495985031E-1,2.950444818E-1,1.450930089E-1,8.185359756E-1
2.229716044E2,-3.525397927E-2,2.265781015E-1,2.745052576E-1,3.576780893E-1
2.231719264E2,-2.800218463E-1,-8.977958560E-2,-8.684538305E-2,3.066182137E-1
2.233722489E2,-3.324755281E-2,-1.111149862E-1,-1.298265010E-1,1.740886564E-1
2.235725709E2,-2.001198232E-1,-2.455425411E-1,-5.677574277E-1,6.501442762E-1
2.237728919E2,8.455408812E-1,-1.860392280E-2,8.196793199E-1,1.177777430E0
2.239732139E2,1.140216142E-1,1.720252484E-1,6.822499633E-1,7.127823139E-1
2.241735359E2,2.680681050E-1,-1.907708123E-3,5.463149548E-1,6.085426674E-1
2.243738576E2,-7.647111416E-1,-6.647943258E-1,-9.605492949E-1,1.396205420E0
2.245741786E2,-3.152400255E-1,-1.333461050E-2,-8.045686483E-1,8.642249681E-1
2.247745006E2,2.779501677E-1,-3.542683721E-1,-4.245610535E-1,6.188816230E-1
2.249748226E2,1.182951555E-1,5.340542197E-1,8.564592600E-1,1.016233299E0
2.251751436E2,3.061152399E-1,-2.850862965E-2,5.084268451E-1,5.941524542E-1
2.253754666E2,-3.191471398E-1,1.038314462E0,-4.083201587E-1,1.160464205E0
2.255757886E2,-1.680535264E-2,-2.432144582E-1,-5.058218166E-2,2.489864448E-1
2.257761096E2,-2.065840811E-1,-3.843505085E-1,-5.717953444E-1,7.192720012E-1
2.259764316E2,-3.069748878E-1,-6.046377122E-2,-4.941462539E-3,3.129119164E-1
2.261767536E2,2.531161606E-1,3.234554827E-1,6.444964409E-1,7.642426986E-1
2.263770737E2,7.643222809E-2,-3.035864830E-1,-4.770325422E-1,5.705845113E-1
2.265773957E2,4.062318709E-3,2.685163021E-1,2.647114992E-1,3.770804752E-1
2.267777167E2,-2.516604960E-1,-1.012994945E-1,-6.179795861E-1,6.749024831E-1
2.269780387E2,4.443393648E-1,1.425296068E-1,6.431102157E-1,7.945708964E-1
2.271783607E2,1.829609722E-1,-8.480446041E-2,4.837256074E-1,5.240772625E-1
2.273786826E2,-4.876116663E-2,2.178200483E-1,2.592193186E-1,3.420787628E-1
2.275790046E2,-5.151640177E-1,3.083694577E-1,-3.563627005E-1,6.981977240E-1
2.277793256E2,-5.691388249E-2,-4.688044265E-2,-5.002018809E-1,5.056074442E-1
2.279796476E2,1.826549768E-1,-3.283105046E-2,-3.177654743E-1,3.679886073E-1
2.281799686E2,6.052016020E-1,1.958953738E-1,7.929185033E-1,1.016544996E0
2.283802896E2,3.614693582E-1,1.773868501E-1,9.406564832E-1,1.023211029E0
2.285806106E2,-2.449863590E-2,7.654187679E-1,-3.800631464E-1,8.549351254E-1
2.287809326E2,3.321466744E-1,-4.832534194E-1,-1.722036302E-1,6.111541303E-1
2.289812536E2,-3.534000516E-1,-7.238031179E-2,-7.252519727E-1,8.100129196E-1
2.291815756E2,-7.497375607E-1,-8.511080742E-1,-2.656672895E-1,1.164933677E0
2.293818970E2,5.204274654E-1,4.772678912E-1,8.122787476E-1,1.076302072E0
2.295822190E2,1.623085439E-1,-9.921818040E-3,-3.855447471E-1,4.184342934E-1
2.297825400E2,1.206340119E-1,5.183707923E-2,5.896368250E-2,1.439318015E-1
2.299828610E2,-6.522323936E-2,-1.901455522E-1,-6.303806901E-1,6.616564187E-1
2.301831830E2,3.033421040E-1,3.395919502E-1,5.212714672E-1,6.921438197E-1
2.303835036E2,3.299998641E-1,8.374999464E-2,7.255591154E-1,8.014674054E-1
2.305838256E2,-2.922959812E-2,8.200402558E-2,4.590241909E-1,4.672068465E-1
2.307841466E2,-2.846476138E-1,-2.150762081E-1,-6.004514694E-1,6.984439895E-1
2.309844676E2,-1.405467391E-1,8.991245180E-2,-5.738024116E-1,5.975674375E-1
2.311847896E2,-3.356071413E-1,-2.757577300E-1,-6.038402915E-1,7.438397519E-1
2.313851110E2,4.876032770E-1,3.512526155E-1,9.748948812E-1,1.145231586E0
2.315854320E2,4.178015515E-2,7.079858780E-1,3.781066537E-1,8.037127760E-1
2.317857540E2,-5.155146718E-1,6.518883705E-1,-3.292553723E-1,8.939367565E-1
2.319860750E2,7.187736034E-2,-3.634058535E-1,-2.071751654E-1,4.244428330E-1
2.321863960E2,-4.608086348E-1,-7.000350952E-1,-7.302479148E-1,1.111600535E0
2.323867181E2,8.646022528E-3,-3.803032637E-1,5.338649452E-2,3.841294624E-1
2.325870391E2,1.877259016E-1,1.772560645E-3,4.723663330E-1,5.083051334E-1
2.327873601E2,-6.270737946E-2,-3.562188745E-1,-4.280505776E-1,5.604028899E-1
2.329876811E2,-1.252005994E-1,-1.398978531E-1,3.956464585E-3,1.877824620E-1
2.331880031E2,-2.057397664E-1,-5.577123165E-1,-6.019516587E-1,8.460009923E-1
2.333883241E2,1.980355680E-1,3.261312842E-1,4.185984731E-1,5.663959590E-1
2.335886451E2,1.943396181E-1,5.026344657E-1,7.735064030E-1,9.427202388E-1
2.337889661E2,1.088903397E-1,-3.941213489E-1,7.265739143E-2,4.152924755E-1
2.339892871E2,-1.280100201E-3,-4.999997094E-2,-4.882549942E-1,4.908101212E-1
2.341896091E2,-2.223106325E-1,2.397375368E-2,-3.286393583E-1,3.974928754E-1
2.343899295E2,2.319682986E-1,3.166237101E-2,-8.367897570E-2,2.486241506E-1
2.345902505E2,2.278792858E-2,3.675079644E-1,9.688629508E-1,1.036473256E0
2.347905715E2,1.855557412E-1,2.375784665E-1,1.755143553E-1,3.488262458E-1
2.349908925E2,-1.201630086E-1,1.266445667E-1,-9.460242093E-2,1.985638762E-1
2.351912135E2,6.185971573E-2,1.685027033E-1,-1.551688761E-1,2.372702374E-1
2.353915353E2,-2.459258288E-1,-4.820876718E-1,-6.596261859E-1,8.532260789E-1
2.355918563E2,-4.580321312E-1,-1.115355045E-1,3.390235901E-1,5.806639274E-1
2.357921783E2,1.751254350E-1,1.876121610E-1,4.171679914E-1,4.897921743E-1
2.359924993E2,-3.780718520E-2,-6.257402897E-1,-6.636379957E-1,9.129050787E-1
2.361928203E2,-1.161519960E-1,-1.709995568E-1,1.073895916E-1,2.329477602E-1
2.363931408E2,-4.730690718E-1,4.560643062E-2,-6.730476022E-1,8.239340799E-1
2.365934618E2,-4.276412725E-1,5.145700648E-2,4.272252619E-1,6.066682009E-1
2.367937828E2,6.107360721E-1,1.254845858E-1,9.178526998E-1,1.109593849E0
2.369941038E2,5.273139849E-2,-4.085570574E-1,-2.154328115E-2,4.125088878E-1
2.371944248E2,-2.311669588E-1,3.155237138E-1,-2.649200559E-1,4.724150853E-1
2.373947454E2,-8.815936744E-2,1.659867726E-2,-5.048673153E-1,5.127753857E-1
2.375950664E2,3.447511792E-1,2.733202279E-1,9.167158604E-2,4.494007145E-1
2.377953864E2,3.939082921E-1,3.792848289E-1,9.631958008E-1,1.107595086E0
2.379957074E2,4.309729859E-2,-4.459124431E-2,7.123316526E-1,7.150259713E-1
2.381960284E2,-5.726265907E-1,3.220536113E-1,-5.907485485E-1,8.835177353E-1
2.383963495E2,2.381242216E-1,-5.049850345E-1,-3.326907456E-1,6.499201198E-1
2.385966705E2,-2.289981991E-1,1.948783547E-1,-7.313368917E-1,7.907410432E-1
2.387969915E2,9.108256698E-1,1.281714737E-1,8.759979010E-1,1.270198272E0
2.389973125E2,-1.963710785E-1,2.500851452E-1,4.478417635E-1,5.492416822E-1
2.391976335E2,1.379364729E-1,8.888474107E-1,-5.572692156E-1,1.058123418E0
2.393979546E2,3.139378726E-1,-5.641261339E-1,-1.222420856E-1,6.570680409E-1
2.395982746E2,-8.153952956E-1,-9.516535401E-1,-1.836208344E0,2.223100319E0
2.397985956E2,-5.972015262E-1,9.464386106E-2,4.912874103E-2,6.066471433E-1
2.399989166E2,6.352669001E-2,1.215113103E-1,6.587799788E-1,6.728979858E-1
2.401992376E2,-3.621403575E-1,3.643743694E-1,-4.588130713E-1,6.887842579E-1
2.403995579E2,-4.618040919E-1,3.315562010E-1,1.307324320E-2,5.686505460E-1
2.405998789E2,-7.114590704E-2,-3.123791516E-1,-5.472181439E-1,6.341058046E-1
2.408001999E2,5.775467157E-1,4.721348882E-1,6.206356287E-1,9.703917483E-1
2.410005209E2,-3.030289114E-1,-5.033587813E-1,-1.822664738E-1,6.151566072E-1
2.412008409E2,2.448923439E-1,-8.858303726E-2,3.670571446E-1,4.500557321E-1
2.414011622E2,-1.238015741E-1,-6.862902641E-1,-2.001597285E-1,7.255239991E-1
2.416014832E2,-1.844889522E-1,-3.591853082E-1,-7.652269602E-1,8.652297728E-1
2.418018032E2,4.735811651E-1,6.196072102E-1,3.824574053E-1,8.685999549E-1
2.420021242E2,2.754895389E-2,-4.304728284E-2,8.009878993E-1,8.026167381E-1
2.422024452E2,5.039696768E-2,1.696102172E-1,3.829086125E-1,4.218133303E-1
2.424027650E2,-3.575928509E-1,-4.651123285E-1,-5.813836455E-1,8.259594836E-1
2.426030860E2,-3.553081453E-1,-1.749744266E-2,-4.232321382E-1,5.528792647E-1
2.428034070E2,-2.330103964E-1,1.157032773E-1,-4.370682240E-1,5.086351596E-1
2.430037270E2,-2.709193230E-1,-1.890815049E-1,-7.523985580E-3,3.304628654E-1
2.432040480E2,3.767168224E-1,3.475000262E-1,6.822959185E-1,8.533460921E-1
2.434043686E2,6.881317496E-1,-7.217410803E-1,-3.098501265E-1,1.044242593E0
2.436046896E2,-7.701593041E-1,6.630227715E-2,-6.546152234E-1,1.012947401E0
2.438050096E2,-4.616135657E-1,-1.544710100E-1,-2.724133432E-1,5.578148497E-1
2.440053306E2,7.050117105E-2,6.431502104E-1,4.031067491E-1,7.623041777E-1
2.442056506E2,-9.020011127E-2,1.753644347E-1,3.287912607E-1,3.833959287E-1
2.444059713E2,-8.285948634E-2,-1.574055701E-1,-2.219141833E-2,1.792614488E-1
2.446062913E2,-5.722475648E-1,2.315764427E-1,-5.230620503E-2,6.195408488E-1
2.448066123E2,-8.573432267E-2,1.780514140E-3,-1.962702274E-1,2.141857756E-1
2.450069323E2,5.458786711E-2,4.472900331E-1,9.276016802E-2,4.600572331E-1
2.452072533E2,1.455644220E-1,5.581133366E-1,5.139202476E-1,7.725241215E-1
2.454075735E2,-1.490475386E-1,5.304016173E-2,7.438964844E-1,7.605329756E-1
2.456078945E2,-4.323240817E-1,1.276696026E-1,-5.472576618E-1,7.090095821E-1
2.458082145E2,5.450381711E-2,6.794265471E-3,-2.158825099E-1,2.227601540E-1
2.460085345E2,2.945072576E-2,-2.467584163E-1,-2.979019284E-1,3.879466719E-1
2.462088555E2,6.168563366E-1,-7.200199366E-1,8.352677524E-2,9.517968119E-1
2.464091753E2,-2.147762179E-1,5.619873405E-1,3.851499557E-1,7.143522122E-1
2.466094953E2,3.747622371E-1,1.449552476E-1,-5.221217871E-1,6.588398278E-1
2.468098163E2,-2.139679193E-1,-5.495682955E-1,7.656101137E-2,5.947009083E-1
2.470101363E2,-7.167710662E-1,1.612206735E-2,-1.022625089E0,1.248912629E0
2.472104563E2,4.188295603E-1,4.495581612E-2,5.555343032E-1,6.971783043E-1
2.474107775E2,4.959359169E-1,1.238912344E-1,5.222331882E-1,7.307728610E-1
2.476110975E2,-2.920840681E-1,-2.689662576E-1,-5.391107127E-2,4.007023261E-1
2.478114175E2,2.894464433E-1,4.105574489E-1,8.904211223E-2,5.101618960E-1
2.480117375E2,-9.248961508E-2,-1.021557301E-1,-4.528152049E-1,4.733199043E-1
2.482120585E2,1.255406141E-1,4.845238030E-1,2.565464079E-1,5.624409488E-1
2.484123778E2,2.348594964E-1,-4.344012123E-3,4.445822239E-1,5.028232366E-1
2.486126978E2,-7.604525238E-2,1.848233193E-1,4.787317812E-1,5.187741880E-1
2.488130178E2,-1.402853608E0,-6.364114285E-1,-8.391196728E-1,1.754177750E0
2.490133378E2,5.988484249E-2,2.569084987E-2,-7.637469172E-1,7.665217334E-1
2.492136578E2,-1.302426904E-1,1.952070594E-1,-2.552582622E-1,3.467358286E-1
2.494139789E2,5.110391974E-1,-3.890720308E-1,6.918498278E-1,9.440308738E-1
2.496142989E2,4.499844834E-2,1.589263976E-1,3.451772928E-1,3.826615001E-1
2.498146189E2,-1.946732402E-1,2.929146290E-1,-3.124397099E-1,4.704415188E-1
2.500149389E2,3.715887964E-1,-2.219200879E-1,4.366347566E-2,4.350094920E-1
2.502152589E2,-5.901945829E-1,-2.788311541E-1,-4.517231882E-1,7.938074684E-1
2.504155788E2,-2.489663363E-1,-2.975977361E-1,1.396622062E-1,4.123762614E-1
2.506158988E2,-2.552943528E-1,2.831199467E-1,1.144555509E-1,3.980354054E-1
2.508162188E2,2.340446264E-1,-6.538462639E-1,-2.885687053E-1,7.520397075E-1
2.510165388E2,1.620325595E-1,-3.281126618E-1,2.803091407E-1,4.609616942E-1
2.512168588E2,-6.344314814E-1,8.940260857E-2,-5.305398703E-1,8.318465513E-1
2.514171796E2,-1.511997730E-1,-7.654622942E-2,1.871343553E-1,2.524677475E-1
2.516174996E2,5.541560650E-1,9.885176271E-2,7.259011865E-1,9.185821400E-1
2.518178196E2,3.643451929E-1,-2.585896254E-1,2.266230583E-1,5.009730776E-1
2.520181386E2,-2.188215703E-1,-1.954532713E-1,-3.103932440E-1,4.271168772E-1
2.522184586E2,-3.041404188E-1,2.719338425E-2,-4.898756742E-1,5.772512890E-1
2.524187781E2,4.733810723E-1,5.534030199E-1,1.166714206E-1,7.375342449E-1
2.526190981E2,-1.765307039E-1,1.091113016E-1,3.654449284E-1,4.202598735E-1
2.528194181E2,1.036396250E-1,4.143417627E-2,2.299041003E-1,2.555657609E-1
2.530197381E2,-1.304454803E-1,-3.430044651E-1,-5.453406572E-1,6.573161483E-1
2.532200571E2,-8.754802942E-1,-4.839840531E-1,-3.634513021E-1,1.064332259E0
2.534203771E2,2.276871353E-1,-1.178689003E-1,-3.397155702E-1,4.256068349E-1
2.536206971E2,4.568071663E-1,3.408562392E-2,6.041340232E-1,7.581639235E-1
2.538210171E2,-6.264279597E-3,3.090447485E-1,6.030312181E-1,6.776389509E-1
2.540213361E2,4.441249073E-1,7.805981040E-1,-2.925706804E-1,9.445517118E-1
2.542216561E2,-1.022489145E-1,-2.664891183E-1,1.600508690E-1,3.272423741E-1
2.544219755E2,-5.906000733E-1,-1.643452048E-1,-8.225307465E-1,1.025853119E0
2.546222945E2,-2.299798429E-1,-6.886241585E-2,1.311428696E-1,2.735529431E-1
2.548226145E2,1.714897156E-1,5.234472156E-1,4.866851866E-1,7.350293742E-1
2.550229345E2,-3.609523922E-2,-4.420221448E-1,-8.997582644E-2,4.525285539E-1
2.552232535E2,7.283781767E-1,3.593176305E-1,2.979138196E-1,8.650991687E-1
2.554235737E2,-4.035667479E-1,-1.952252090E-1,-6.917402744E-1,8.243079579E-1
2.556238937E2,6.040628552E-1,4.642139077E-1,5.701621175E-1,9.515625704E-1
2.558242127E2,3.461432159E-1,-2.240212820E-2,7.551447153E-1,8.309997126E-1
2.560245327E2,7.715655863E-2,2.486650646E-1,6.056208611E-1,6.592147421E-1
2.562248517E2,-2.147494704E-1,-3.109162152E-1,-7.196146250E-1,8.127923698E-1
2.564251720E2,-2.983673215E-1,-3.482443392E-1,-6.128914952E-1,7.654627119E-1
2.566254910E2,1.273916215E-1,4.571409822E-1,8.331232704E-3,4.746323969E-1
2.568258110E2,3.447204232E-1,1.004892960E-1,5.338026285E-1,6.433315747E-1
2.570261300E2,2.198624983E-2,5.458666757E-2,3.157032728E-1,3.211411776E-1
2.572264500E2,-3.650065958E-1,-2.869025469E-1,-6.575139165E-1,8.049021287E-1
2.574267684E2,-3.724555671E-1,-1.917950958E-1,-3.607944548E-1,5.528843883E-1
2.576270884E2,-4.290092289E-1,-4.078507796E-2,-6.101525426E-1,7.469929493E-1
2.578274074E2,3.575443327E-1,-1.101692095E-1,4.768078029E-1,6.060700335E-1
2.580277274E2,-1.565717608E-1,4.949916601E-1,3.584672511E-1,6.308963702E-1
2.582280464E2,2.806614637E-1,4.438297451E-1,-8.199615031E-2,5.314875996E-1
2.584283661E2,-1.078311875E-1,-3.571004272E-1,-3.138906956E-1,4.875198958E-1
2.586286861E2,-6.817750931E-1,-8.630374819E-2,-6.667619944E-1,9.575161469E-1
2.588290051E2,-2.201214582E-1,-2.643635273E-1,3.893330097E-1,5.195399151E-1
2.590293241E2,2.789971530E-1,3.526027501E-1,7.561973929E-1,8.797741800E-1
2.592296441E2,-8.984683454E-2,9.284961969E-2,-1.365055442E-1,1.879554978E-1
2.594299628E2,-2.210748615E-3,1.852919310E-1,-1.566731930E-1,2.426612382E-1
2.596302818E2,-2.272471189E-1,-9.311174043E-3,-4.536782503E-1,5.074957200E-1
2.598306018E2,5.141232610E-1,4.900140166E-1,5.242756009E-1,8.827804765E-1
2.600309208E2,3.428451717E-1,6.316129584E-3,5.769606233E-1,6.711678375E-1
2.602312398E2,1.944578439E-1,-7.571581602E-1,1.615093201E-1,7.982403104E-1
2.604315593E2,-5.021893978E-1,-8.006136417E-1,-6.621861458E-1,1.153978720E0
2.606318783E2,1.815055870E-2,7.869647443E-2,-4.997018278E-1,5.061862252E-1
2.608321983E2,2.161080390E-1,3.341009915E-1,1.891353875E-1,4.405659450E-1
2.610325173E2,1.623924971E-1,-2.164126784E-1,4.331822693E-1,5.107373581E-1
2.612328363E2,3.007703424E-1,5.230673030E-2,5.894253850E-1,6.637929477E-1
2.614331551E2,-5.113036633E-1,5.993456766E-2,-3.215275407E-1,6.069625589E-1
2.616334741E2,-1.716175824E-1,9.755432606E-2,-2.394721806E-1,3.103487819E-1
2.618337931E2,-5.975004435E-1,-7.112859190E-2,-2.290299088E-1,6.438328631E-1
2.620341121E2,1.949462444E-1,2.450771779E-1,1.350816935E-1,3.410482741E-1
2.622344311E2,-6.463259459E-2,1.552179754E-1,5.813975930E-1,6.052215738E-1
2.624347499E2,3.497271538E-1,-3.406365514E-1,-2.869011760E-1,5.662637433E-1
2.626350689E2,1.390788406E-1,2.213641405E-1,2.095709294E-1,3.350596679E-1
2.628353879E2,-4.584518373E-1,-4.121576846E-1,-7.202708125E-1,9.480728281E-1
2.630357069E2,4.081280828E-1,4.168532789E-1,4.979850352E-1,7.670230005E-1
2.632360259E2,2.986300886E-1,-9.739013016E-2,7.051694393E-1,7.719641866E-1
2.634363454E2,8.077648282E-2,-7.014370710E-2,3.737636507E-1,3.887727439E-1
2.636366644E2,-1.055388004E-1,6.322073936E-2,-4.272843003E-1,4.446427483E-1
2.638369824E2,-3.330949545E-1,-1.353523433E-1,-5.123930573E-1,6.259545916E-1
2.640373014E2,1.457143277E-1,6.508759856E-1,1.494086981E-1,6.835167686E-1
2.642376204E2,2.735157311E-1,3.681000471E-1,8.023609519E-1,9.241707618E-1
2.644379393E2,7.102316618E-2,4.910599813E-2,3.491171002E-1,3.596365372E-1
2.646382583E2,-4.715253711E-1,5.768032074E-1,-5.508443713E-1,9.265352865E-1
2.648385773E2,-1.838848740E-2,-6.403686106E-2,-1.238677576E-1,1.406487733E-1
2.650388953E2,-2.567521036E-1,-4.539620578E-1,-5.389707088E-1,7.499950784E-1
2.652392143E2,5.499066710E-1,1.250344981E-2,3.513206244E-1,6.526713294E-1
2.654395332E2,6.355541758E-3,1.156641692E-1,6.541426182E-1,6.643200719E-1
2.656398522E2,2.216300070E-1,6.085880399E-1,-2.541702986E-1,6.957742471E-1
2.658401702E2,1.329928488E-1,-7.692160010E-1,-2.662762702E-1,8.247929474E-1
2.660404892E2,-6.759024262E-1,2.309979796E-1,-5.022635460E-1,8.731968999E-1
2.662408082E2,-1.146592125E-1,-7.383106649E-2,3.679487109E-1,3.924079704E-1
2.664411256E2,3.999960423E-1,-6.094166040E-1,3.742555380E-1,8.194221371E-1
2.666414446E2,-4.406749904E-1,-2.496391535E-1,-8.889403939E-2,5.142142592E-1
2.668417636E2,2.836869955E-1,2.212387621E-1,2.322054058E-1,4.281871691E-1
2.670420816E2,-1.524872184E-1,-9.864512831E-3,-6.562158465E-1,6.737721407E-1
2.672424006E2,1.081205085E-1,5.249894261E-1,4.428526759E-1,6.952858653E-1
2.674427193E2,7.227820158E-1,-1.144625340E-2,1.187197566E0,1.389957884E0
2.676430383E2,2.615839243E-2,-1.803406030E-1,1.053062156E-1,2.104670844E-1
2.678433573E2,-2.098444998E-1,-4.705054164E-1,-4.206648469E-1,6.651082426E-1
2.680436753E2,-3.422680125E-2,-3.366497755E-1,-9.693207145E-1,1.026687485E0
2.682439943E2,-1.497404426E-1,-1.595544517E-1,-2.616028488E-1,3.410511306E-1
2.684443122E2,4.787632227E-1,5.419899225E-1,8.242372274E-1,1.096510058E0
2.686446312E2,7.464617491E-2,-6.655167043E-2,6.667789817E-1,6.742368921E-1
2.688449492E2,-4.382553101E-1,6.966790557E-1,-5.329783559E-1,9.805586934E-1
2.690452682E2,7.131863236E-1,-3.380735219E-1,3.408044204E-2,7.899936170E-1
2.692455862E2,-7.468526363E-1,-3.868682683E-1,-9.341911674E-1,1.257047753E0
2.694459053E2,-1.414115131E-1,3.725534976E-1,-1.871188730E-1,4.402349341E-1
2.696462233E2,-3.511172486E-3,-4.226940870E-1,3.586198390E-1,5.543381715E-1
2.698465423E2,-1.242773682E-1,-5.029845238E-1,-3.143221736E-1,6.060005975E-1
2.700468603E2,-2.840395831E-2,-4.028496444E-1,-1.364476383E-1,4.262775843E-1
2.702471793E2,-6.642335653E-1,-9.692934901E-2,-8.385471702E-1,1.074133551E0
2.704474973E2,2.246368527E-1,6.203879118E-1,5.041584373E-1,8.303725709E-1
2.706478153E2,6.566480398E-1,4.315619543E-2,7.914614677E-1,1.029300909E0
2.708481343E2,-1.947917342E-1,-8.782430738E-2,3.435829878E-1,4.046062261E-1
2.710484523E2,-1.254130006E0,-6.270772815E-1,-8.114022017E-1,1.620012815E0
2.712487713E2,-2.743142247E-1,-3.246279657E-1,-9.855412841E-1,1.073276867E0
2.714490885E2,-2.515935004E-1,-2.915566564E-1,-3.279391825E-1,5.058148680E-1
2.716494065E2,1.178474903E0,3.903044760E-1,8.813406825E-1,1.522465789E0
2.718497255E2,2.330606431E-2,4.339619074E-3,4.296635985E-1,4.303171073E-1
2.720500435E2,3.500457481E-2,9.034027457E-1,-1.083364189E-1,9.105485275E-1
2.722503615E2,6.310314536E-1,-1.890546679E-1,3.576503694E-1,7.495706435E-1
2.724506803E2,-5.590320826E-1,-3.787742183E-2,-6.769066453E-1,8.787230365E-1
2.726509993E2,-2.473575622E-1,2.099725902E-1,6.928524375E-1,7.650612736E-1
2.728513173E2,6.772515774E-1,5.590638518E-1,7.872528434E-1,1.179402022E0
2.730516353E2,-8.084399104E-1,-6.259532273E-2,-3.883202076E-1,8.990471883E-1
2.732519543E2,1.719573289E-1,7.171639055E-2,5.771452934E-2,1.950475084E-1
2.734522715E2,-5.466300249E-1,-1.020408981E-2,-6.257390976E-1,8.309379795E-1
2.736525895E2,-1.006839275E-1,3.000671864E-1,4.455135465E-1,5.464978405E-1
2.738529075E2,1.088222504E0,3.597018123E-2,1.208851695E0,1.626912564E0
2.740532255E2,-8.701666445E-2,3.165715933E-1,7.443137169E-1,8.135062278E-1
2.742535445E2,2.270908356E-1,-1.395101249E-1,-1.089304090E-1,2.879221363E-1
2.744538629E2,2.095536143E-1,3.412874416E-2,4.436770380E-1,4.918605518E-1
2.746541809E2,-6.546266079E-1,-1.908642352E-1,-6.074666381E-1,9.132255299E-1
2.748544989E2,-1.859866083E-1,3.116867542E-1,8.316731453E-1,9.074248574E-1
2.750548169E2,2.441308349E-1,-2.208238095E-2,6.728333831E-1,7.160951456E-1
2.752551349E2,3.158794343E-2,8.808956482E-3,2.176402509E-1,2.200969666E-1
2.754554528E2,-4.151685238E-1,-3.174658716E-1,-5.405412316E-1,7.518871630E-1
2.756557708E2,-1.364230961E-1,-2.522516549E-1,-5.423339605E-1,6.134886171E-1
2.758560888E2,-5.027598515E-2,-3.010254502E-1,-4.899778217E-2,3.091031851E-1
2.760564068E2,5.998399258E-1,6.613695621E-2,7.239817381E-1,9.425134432E-1
2.762567248E2,5.862009525E-2,1.823095232E-2,2.206645310E-1,2.290447957E-1
2.764570433E2,-2.500626445E-1,7.163842320E-1,-2.284878865E-2,7.591177519E-1
2.766573613E2,4.435053468E-1,-4.390925765E-1,1.866098195E-1,6.514004207E-1
2.768576793E2,-3.853104413E-1,-1.662177145E-1,2.378030568E-1,4.823305491E-1
2.770579973E2,-4.523872137E-1,1.729486287E-1,3.209104538E-1,5.809896201E-1
2.772583153E2,-4.267908037E-1,2.948813140E-1,7.087423205E-1,8.783057875E-1
2.774586333E2,5.414445326E-2,4.052352905E-2,2.422529608E-1,2.515159543E-1
2.776589513E2,3.512953520E-1,-9.337232262E-2,-6.313204020E-2,3.689342346E-1
2.778592693E2,-1.791995317E-1,-2.595936954E-1,-5.119520426E-1,6.013287393E-1
2.780595872E2,-9.806365520E-2,5.929208994E-1,4.361220896E-1,7.425457228E-1
2.782599053E2,8.200044632E-1,-3.353290260E-1,1.112545609E0,1.422185153E0
2.784602233E2,2.318384498E-1,2.298938110E-2,7.399297953E-1,7.757407301E-1
2.786605413E2,-6.420195103E-1,-3.574908152E-2,-5.680567026E-1,8.579950267E-1
2.788608593E2,-3.148610890E-1,-1.300871745E-2,-6.089442968E-1,6.856528923E-1
2.790611763E2,-3.886970878E-1,-1.296000034E-1,-9.282997251E-1,1.014702896E0
2.792614943E2,9.595307708E-1,-8.450657725E-1,-8.480057120E-2,1.281415856E0
2.794618124E2,-1.914138049E-1,2.259667814E-1,2.827706933E-1,4.094624476E-1
2.796621304E2,-1.663636267E-1,-5.609431863E-1,-7.313514948E-1,9.365944285E-1
2.798624484E2,2.851511836E-1,-1.160060465E-1,5.212789029E-2,3.122273487E-1
2.800627664E2,-4.876968563E-1,-5.549278483E-2,-1.004426479E0,1.117944643E0
2.802630844E2,6.378865242E-1,4.931250513E-1,7.339146733E-1,1.090276241E0
2.804634007E2,3.428770304E-1,-1.482485533E-1,4.198043942E-1,5.619412967E-1
2.806637187E2,3.281522170E-2,-1.117949858E-1,2.808767557E-1,3.040833924E-1
2.808640367E2,8.830799162E-2,3.981092572E-1,-5.065776706E-1,6.503154761E-1
2.810643547E2,1.182958111E-1,-2.803633511E-1,-2.331305742E-1,3.833371521E-1
2.812646727E2,-4.858946204E-1,9.714569896E-2,-8.409676552E-1,9.760929597E-1
2.814649899E2,9.292325377E-1,-3.684514165E-1,1.601657420E-1,1.012364865E0
2.816653079E2,-8.960624039E-2,5.927426219E-1,4.807004631E-1,7.684048603E-1
2.818656259E2,7.084017396E-1,9.986354969E-3,2.200262994E-1,7.418519558E-1
2.820659439E2,-5.677015185E-1,3.021106124E-1,-1.452061534E-1,6.592728291E-1
2.822662609E2,-3.935106397E-1,-1.935315728E-1,-6.505330205E-1,7.845369997E-1
2.824665791E2,7.580185533E-1,1.362741441E-1,3.729218245E-1,8.557064079E-1
2.826668971E2,9.110961109E-2,1.472658366E-1,7.173810601E-1,7.379862961E-1
2.828672141E2,1.667870134E-1,2.746041305E-2,4.397405684E-1,4.711090634E-1
2.830675321E2,-4.190728962E-1,2.837986350E-1,-6.168814898E-1,7.979389262E-1
2.832678501E2,-2.647124529E-1,-4.059766531E-1,-4.185168445E-1,6.403484010E-1
2.834681675E2,-3.019134104E-1,-3.922581375E-1,-5.199679136E-1,7.179030471E-1
2.836684855E2,1.797915101E-1,4.031723738E-1,5.951504111E-1,7.409972753E-1
2.838688035E2,4.378107935E-2,1.354873478E-1,7.093557119E-1,7.235047549E-1
2.840691205E2,2.435362525E-2,2.173880190E-1,-1.735715196E-3,2.187548001E-1
2.842694385E2,-6.529197097E-1,-4.110244513E-1,-7.780525684E-1,1.095723983E0
2.844697549E2,-5.131383538E-1,-4.082434177E-1,-1.072950721E0,1.257456523E0
2.846700729E2,-4.678336680E-1,1.266574711E-1,-1.081151068E-1,4.965876883E-1
2.848703899E2,-6.915942430E-1,-1.022013724E-1,-1.066332534E-1,7.071904752E-1
2.850707079E2,1.367154568E-1,-1.186272204E-1,6.948546767E-1,7.180435609E-1
2.852710249E2,-3.346983790E-1,5.533313155E-1,-5.330564380E-1,8.380618806E-1
2.854713427E2,-8.660392165E-1,-4.854325056E-1,-7.113583088E-1,1.221351418E0
2.856716597E2,-6.280483305E-2,-3.189874291E-1,-6.609649062E-1,7.365948915E-1
2.858719777E2,1.395801902E0,3.945069015E-1,-2.769713402E-1,1.476689462E0
2.860722947E2,-9.473251104E-1,6.326166987E-1,-7.227029651E-2,1.141425314E0
2.862726127E2,-2.901610136E-1,-2.330549955E-1,7.498353720E-1,8.371147650E-1
2.864729303E2,-2.635911852E-2,8.690508455E-2,-8.177709766E-3,9.118208040E-2