"time","Gyroscope x","Gyroscope y","Gyroscope z","abs Gyroscope"
2.163320833E-1,-3.712379634E-1,-2.698374391E-1,-3.954021931E-1,6.057827691E-1
4.167270835E-1,-2.386841476E-1,-5.652127266E-1,-8.589031100E-1,1.055533089E0
6.171230834E-1,7.783287019E-2,-7.914153934E-1,-9.091013074E-1,1.207833377E0
8.175180834E-1,2.410452999E-2,-3.443676606E-2,-6.699152589E-1,6.712327266E-1
1.017912333E0,2.128885388E-1,8.881921768E-1,-5.679524541E-1,1.075535617E0
1.218307334E0,2.118481547E-1,-3.414620087E-2,-4.471467435E-1,4.959695696E-1
1.418702333E0,5.736119673E-2,3.743582368E-1,1.336341649E-1,4.016123583E-1
1.619097333E0,3.059931993E-1,1.695493460E0,2.401742220E0,2.955790182E0
1.819492333E0,5.363665819E-1,7.239751518E-2,5.900903344E-1,8.007103803E-1
2.019887083E0,5.434026942E-2,-8.685116172E-1,-6.770853996E-1,1.102592369E0
2.220283083E0,-3.979287446E-1,7.422578931E-1,-4.570253491E-1,9.582099119E-1
2.420678083E0,-5.763372183E-1,1.575824572E-4,-3.054296374E-1,6.522667226E-1
2.621073083E0,2.692431509E-1,3.703399897E-1,3.835100830E-1,5.972633975E-1
2.821468083E0,-6.147556901E-1,-8.827360272E-1,3.166414201E-1,1.121342607E0
3.021862708E0,-7.853862643E-2,-8.930053711E-1,-1.340142190E-1,9.064142097E-1
3.222257708E0,-8.299332857E-1,-3.956416845E-1,-1.046079874E0,1.392696918E0
3.422653708E0,-5.046784878E-1,-3.885067701E-1,-1.213819623E0,1.370764737E0
3.623048708E0,-9.271212816E-1,-3.072389960E-1,-4.751278758E-1,1.086138191E0
3.823443708E0,2.108604759E-1,2.070920318E-1,-2.696457505E-1,4.000725943E-1
4.023838958E0,-3.770536557E-2,4.089964628E-1,3.213841021E-1,5.215242490E-1
4.224234958E0,3.378641605E-1,2.176815718E-1,9.681992233E-2,4.134145076E-1
4.424629958E0,9.402773976E-1,8.100000024E-2,-6.258195043E-1,1.132401270E0
4.625024959E0,2.371055931E-1,-1.355797797E-1,2.587961853E-1,3.762664009E-1
4.825419958E0,2.710908949E-1,1.648002416E-1,3.494562507E-1,4.719841778E-1
5.025816125E0,6.438049078E-1,7.105496526E-1,1.194704413E0,1.531889096E0
5.226211125E0,3.874798715E-1,3.633745313E-1,8.107011318E-1,9.692357948E-1
5.426606125E0,1.903225482E-1,-1.604697227E0,-6.826174259E-1,1.754207061E0
5.627002125E0,-3.612498343E-1,5.890321136E-1,-1.541352570E-1,7.079674788E-1
5.827397125E0,-3.939916790E-1,-4.549093843E-1,-1.866680086E-1,6.300927998E-1
6.027792458E0,-3.394708931E-1,6.534392834E-1,6.131988764E-1,9.582464434E-1
6.228188458E0,-1.696185321E-1,-5.172463059E-1,-1.025810912E-1,5.539287569E-1
6.428583459E0,-7.198900729E-2,5.670934319E-1,-4.177530706E-1,7.080218964E-1
6.628978458E0,7.846257091E-1,8.233721256E-1,-6.129679084E-1,1.292017344E0
6.829374458E0,9.099912047E-1,-1.475971043E-1,3.802723289E-1,9.972341460E-1
7.029768750E0,-1.579113305E-1,-1.242464483E-1,-2.969436646E-1,3.585368992E-1
7.230163750E0,6.109098792E-1,7.502709031E-1,1.360833049E0,1.669725695E0
7.430559750E0,-2.282685935E-1,4.177078307E-1,9.188608825E-2,4.847983455E-1
7.630954750E0,1.582677215E-1,-1.692224294E-2,-4.664085805E-2,1.658626047E-1
7.831349750E0,-1.053681850E0,-8.043450117E-1,-8.566734791E-1,1.578323728E0
8.031745333E0,-7.375335097E-1,-6.532194018E-1,-2.382024974E-1,1.013603322E0
8.232140333E0,1.541882753E-1,-1.304465085E-1,-1.146577448E-1,2.322427916E-1
8.432535333E0,6.228917465E-2,4.702143967E-1,3.159584701E-1,5.699221657E-1
8.632931334E0,-4.943642616E-1,-7.273837924E-1,-7.611628175E-1,1.163121679E0
8.833326333E0,1.472746968E0,9.958975911E-1,6.157989502E-1,1.881489833E0
9.033722458E0,3.136401251E-2,-1.292837262E-1,-1.683559269E-3,1.330444193E-1
9.234117458E0,-5.047589168E-2,4.366692007E-1,4.729469419E-1,6.456830618E-1
9.434512459E0,2.654749155E-2,7.964577079E-1,1.228024602E0,1.463931034E0
9.634908458E0,-5.653271079E-1,-8.832930028E-2,3.105512559E-1,6.510290983E-1
9.835303458E0,-5.425975919E-1,-1.020218849E0,-7.846965194E-1,1.396784620E0
1.003569858E1,-2.834337652E-1,-5.276144743E-1,-6.383492947E-1,8.753293978E-1
1.023609458E1,-1.585816145E0,-1.019881845E0,-5.927854180E-1,1.976452978E0
1.043648958E1,9.878064394E-1,3.022095859E-1,-3.335685134E-1,1.085522984E0
1.063688458E1,-2.393233925E-1,2.749306560E-1,3.550600708E-1,5.088518504E-1
1.083727958E1,9.459967911E-2,2.060713805E-2,-3.562190235E-1,3.691419051E-1
1.103767621E1,9.255596399E-1,6.658753157E-1,3.002405167E-1,1.179065287E0
1.123807121E1,1.759773940E-1,-6.590127945E-2,2.263187021E-1,2.941618207E-1
1.143846621E1,5.587241650E-1,-1.731206328E-1,-1.338608116E-1,6.000518002E-1
1.163886221E1,2.221512347E-1,3.164938688E-1,1.125478506E0,1.190051011E0
1.183925721E1,-7.120500803E-1,-1.516148895E-1,-4.516762868E-2,7.294124391E-1
1.203965200E1,-6.187858433E-2,5.862019062E-1,2.578892931E-2,5.900226292E-1
1.224004700E1,-3.354297876E-1,-1.267321259E-1,1.861934811E-1,4.040324078E-1
1.244044200E1,-4.997570217E-1,-1.040771827E-1,-2.058984526E-2,5.108943946E-1
1.264083800E1,-8.965486288E-2,-4.632189497E-2,-2.349743992E-1,2.557277472E-1
1.284123300E1,-3.718123138E-1,2.350621372E-1,3.205570877E-1,5.442935343E-1
1.304162808E1,-1.247611120E-1,4.715446755E-2,-3.297176361E-1,3.556720378E-1
1.324202308E1,1.239755630E0,3.713446558E-1,-5.256852508E-1,1.396866443E0
1.344241808E1,1.821509004E-1,1.601870954E-1,2.962041795E-1,3.828521542E-1
1.364281308E1,-5.427117944E-1,-2.844199724E-2,-4.217313826E-1,6.878970839E-1
1.384320808E1,2.821253538E-1,8.061668277E-2,4.368912280E-1,5.262772177E-1
1.404360383E1,-1.084785610E-1,1.580649465E-1,-3.751855195E-1,4.213268322E-1
1.424399883E1,5.752903223E-1,-3.711872697E-1,-3.934467733E-1,7.896450516E-1
1.444439383E1,-4.037297666E-1,-1.161995158E-1,1.734348983E-1,4.545104133E-1
1.464478883E1,-4.471060336E-1,-2.216157913E-1,2.901590988E-2,4.998592674E-1
1.484518383E1,1.960159242E-1,2.041847855E-1,4.050859511E-1,4.941743588E-1
1.504557796E1,-3.720182925E-2,-2.507934868E-1,4.267975092E-1,4.964246801E-1
1.524597296E1,-2.609922290E-1,8.543624729E-2,-8.975690007E-1,9.386407231E-1
1.544636796E1,1.512097120E0,7.593001723E-1,2.112325877E-1,1.705166754E0
1.564676296E1,-6.442234516E-1,-1.781753078E-2,3.342381492E-2,6.453359369E-1
1.584715796E1,5.764938593E-1,2.723317146E-1,1.843030564E-2,6.378474808E-1
1.604755321E1,1.153707504E0,9.030305147E-1,1.426417470E0,2.044791411E0
1.624794821E1,-4.117057920E-1,4.705006182E-1,4.374291897E-1,7.630313145E-1
1.644834321E1,2.684742212E-1,5.329161882E-2,1.827607863E-2,2.743217439E-1
1.664873821E1,-7.066737860E-2,-3.970580399E-1,-3.806690574E-1,5.545790266E-1
1.684913221E1,-1.005238056E0,-3.128513396E-1,-4.312578142E-1,1.137700669E0
1.704952658E1,-4.205665886E-1,4.275467694E-1,2.292451411E-1,6.420481526E-1
1.724992158E1,2.749852277E-2,-4.763903841E-2,2.083106935E-1,2.154506713E-1
1.745031658E1,2.053528726E-1,-1.404749006E-1,-3.017611206E-1,3.911045562E-1
1.765071158E1,1.539232731E0,4.031582475E-1,-2.766870856E-1,1.615032419E0
1.785110558E1,5.107019544E-1,3.051952124E-1,3.812776804E-1,7.066351770E-1
1.805150058E1,2.506127059E-1,-7.953293622E-2,1.580301374E-1,3.067665899E-1
1.825189558E1,1.330673844E-1,5.795388818E-1,6.152312160E-1,8.556177262E-1
1.845229058E1,-5.434176922E-1,2.228252217E-2,2.435230017E-1,5.959049851E-1
1.865268458E1,4.294658452E-2,-6.415389776E-1,-2.989821732E-1,7.090888582E-1
1.885307958E1,-3.584711552E-1,-2.384527773E-1,-1.905765682E-1,4.708298253E-1
1.905347371E1,-1.122531652E0,-6.479552984E-1,1.330363378E-2,1.296186856E0
1.925386871E1,3.912463486E-1,2.273039520E-1,2.152678967E-1,5.010798931E-1
1.945426371E1,-6.549934745E-1,-2.648672760E-1,-4.164683446E-2,7.077468363E-1
1.965465771E1,4.872559607E-1,-1.628280878E0,-3.644959927E-1,1.738267620E0
1.985505271E1,5.216321349E-1,1.225704327E-1,-3.958722949E-2,5.372994918E-1
2.005544683E1,-3.227949142E-1,1.484038234E-1,-4.500138760E-1,5.733521954E-1
2.025584183E1,4.121759832E-1,-1.355172098E-1,-8.494909853E-2,4.421202377E-1
2.045623583E1,1.207557082E0,7.323939204E-1,6.065344810E-1,1.537035796E0
2.065663083E1,-2.534517646E-1,5.249830484E-1,4.729285836E-1,7.506706624E-1
2.085702483E1,2.322326973E-2,2.990219593E-1,-1.784345210E-1,3.489875795E-1
2.105741858E1,6.464780122E-2,7.135745287E-1,2.117525935E-1,7.471325900E-1
2.125781358E1,-6.156150103E-1,-1.348165721E-1,-3.513265550E-1,7.215176347E-1
2.145820758E1,6.821349263E-1,-3.482555598E-2,9.005060792E-1,1.130235407E0
2.165860158E1,-1.130010605E0,-7.663905621E-1,-2.285291851E-1,1.384378579E0
2.185899658E1,-1.367071867E-1,-1.663073599E-1,-2.609666288E-1,3.383054451E-1
2.205939050E1,8.217273355E-1,1.771082878E-1,-1.754212826E-1,8.587058785E-1
2.225978450E1,-4.854530394E-1,7.266547680E-1,-4.462245405E-1,9.812278766E-1
2.246017850E1,1.303784698E-1,-2.233480662E-1,2.967674136E-1,3.936417176E-1
2.266057250E1,1.525263548E0,6.514687538E-1,6.690987349E-1,1.788444448E0
2.286096650E1,1.308473796E-1,7.287131548E-1,7.407906651E-1,1.047336960E0
2.306136071E1,1.302124739E0,-2.348755300E-1,-5.133982897E-1,1.419250913E0
2.326175471E1,-3.710084260E-1,-7.828956097E-2,-3.966585398E-1,5.487390132E-1
2.346214871E1,-9.447890520E-1,-2.679179907E-1,-1.975085139E-1,1.001706552E0
2.366254271E1,9.694619775E-1,3.061832190E-1,9.572471380E-1,1.396397785E0
2.386293671E1,-1.191720128E0,-1.063413739E0,-1.555272341E-1,1.604753677E0
2.406333108E1,-1.107589453E-1,-6.778385043E-1,-7.204040885E-1,9.953464887E-1
2.426372508E1,-2.705008090E-1,-1.241527319E0,-1.187401175E0,1.739103885E0
2.446411908E1,-7.712967992E-1,-4.643014073E-1,-6.157300472E-1,1.090686958E0
2.466451308E1,1.413837373E-1,1.410760432E-1,1.636392772E-1,2.582046169E-1
2.486490708E1,9.195042849E-1,4.351700190E-3,-1.481577456E-1,9.313741379E-1
2.506530008E1,-2.125674784E-1,8.484306931E-1,5.197069645E-1,1.017405968E0
2.526569408E1,-1.774189472E-1,-8.516041636E-1,-3.923173547E-1,9.542641359E-1
2.546608808E1,-1.759032011E-1,1.258703023E-1,2.106961422E-2,2.173227963E-1
2.566648108E1,-2.004022002E-1,-2.647931874E-1,-1.643917263E-1,3.705416489E-1
2.586687508E1,4.043017924E-1,-2.668194175E-1,6.573058367E-1,8.165191387E-1
2.606726950E1,-4.589961171E-1,-5.275277421E-2,1.123495623E-1,4.754815610E-1
2.626766250E1,-9.451555610E-1,-3.114651144E-1,-5.209722519E-1,1.123272736E0
2.646805650E1,5.418235660E-1,-1.794775248E0,-1.648533344E0,2.496488164E0
2.666844950E1,6.784014404E-2,5.152913928E-1,-7.057081163E-2,5.245071440E-1
2.686884250E1,-3.522125259E-2,-8.631162345E-3,5.798188597E-2,6.838810348E-2
2.706923575E1,1.843143821E0,-8.760101348E-2,3.567102253E-1,1.879386939E0
2.726962875E1,-2.124739289E-1,8.579825759E-1,7.813118100E-1,1.179714972E0
2.747002275E1,1.272250153E-2,-3.593510389E-1,-8.497343212E-2,3.694800609E-1
2.767041575E1,5.782701373E-1,5.708846450E-1,-6.784407049E-2,8.154191851E-1
2.787080875E1,-4.769256413E-1,-3.883264363E-1,-3.662197888E-1,7.158019434E-1
2.807120183E1,4.838306010E-1,-1.404688209E-1,1.018685579E0,1.136461108E0
2.827159483E1,-9.620853066E-1,-6.280655861E-1,-2.450020462E-1,1.174776796E0
2.847198783E1,-4.764923751E-1,-1.316741705E-1,-2.792612612E-1,5.677762964E-1
2.867238183E1,6.921119243E-2,-1.641270816E-1,-9.119628072E-1,9.291953776E-1
2.887277483E1,-5.570771694E-1,1.866307557E-1,-5.015202761E-1,7.724562117E-1
2.907316783E1,2.293150723E-1,-6.910855174E-1,4.031562209E-1,8.322977431E-1
2.927356083E1,6.078846455E-1,-6.271346807E-1,-4.283746183E-1,9.727931248E-1
2.947395383E1,3.571026027E-1,9.306609035E-1,8.088328242E-1,1.283690977E0
2.967434583E1,1.712679714E-1,-1.346247494E-1,-5.189982057E-1,5.628638189E-1
2.987473883E1,1.062341332E0,1.156067252E0,8.271839023E-1,1.774624976E0
3.007513208E1,4.051763564E-2,1.315673441E-1,-3.431298733E-1,3.697157756E-1
3.027552508E1,-3.748869002E-1,-1.781086326E-1,2.649043500E-1,4.923791096E-1
3.047591808E1,-1.835546196E-1,1.330838680E0,1.335613251E0,1.894382920E0
3.067631108E1,-3.597528338E-1,4.266664386E-1,3.995192647E-1,6.863541317E-1
3.087670308E1,4.746704400E-1,3.138217330E-1,-3.673017323E-1,6.772788711E-1
3.107709546E1,8.107052743E-2,-1.900943220E-1,-6.534952521E-1,6.853935557E-1
3.127748846E1,-9.885725379E-1,-9.763418436E-1,-6.744945645E-1,1.544494084E0
3.147788046E1,-2.148371190E-1,2.074826211E-1,3.043181896E-1,4.263960439E-1
3.167827346E1,4.355150461E-1,-2.718614787E-2,5.971583724E-1,7.396016250E-1
3.187866546E1,-1.351953745E0,7.353742719E-1,-7.949507236E-1,1.732195399E0
3.207905883E1,1.710355043E0,8.850398660E-2,5.845978260E-1,1.809669016E0
3.227945083E1,7.113634795E-2,-9.312929958E-2,-3.839007020E-1,4.013890824E-1
3.247984383E1,9.587608278E-2,4.491138458E-1,3.816888630E-1,5.971447546E-1
3.268023583E1,5.476139784E-1,8.343464136E-1,1.319958925E0,1.654782938E0
3.288062783E1,-5.670005679E-1,9.912337065E-1,9.121925384E-2,1.145580576E0
3.308102108E1,-9.758872539E-2,1.635144055E-1,-2.394376397E-1,3.059263039E-1
3.328141308E1,-5.304335356E-1,-5.427712202E-1,-1.170036197E0,1.394612862E0
3.348180508E1,-4.110032022E-1,-8.280444145E-1,-9.121918678E-2,9.289252525E-1
3.368219708E1,-3.967387080E-1,5.645241141E-1,4.559370577E-1,8.270233845E-1
3.388259008E1,1.147400439E-1,3.443664908E-1,4.156713188E-2,3.653510423E-1
3.408298200E1,-5.762826204E-1,-1.155127063E-1,-6.000126004E-1,8.399166415E-1
3.428337400E1,7.856172323E-1,2.528141737E-1,-2.702282369E-1,8.684081657E-1
3.448376600E1,3.243727684E-1,3.608735651E-2,2.044346631E-1,3.851149460E-1
3.468415800E1,-1.999511719E-1,1.250082999E-1,5.963750929E-2,2.432368778E-1
3.488455000E1,1.332153559E0,7.412713766E-1,1.033080101E0,1.841567499E0
3.508494196E1,-2.171754390E-1,2.194802016E-1,3.399527967E-1,4.592435456E-1
3.528533396E1,8.253769875E-1,-2.970567048E-1,-3.790263534E-1,9.555892600E-1
3.548572596E1,-8.489428759E-1,1.432973742E-1,-7.043107748E-1,1.112336195E0
3.568611696E1,2.449984476E-2,-3.248086870E-1,1.218818128E-1,3.477874377E-1
3.588650896E1,2.489210814E-1,3.777592182E-1,5.872921348E-1,7.413337867E-1
3.608690071E1,-9.346591234E-1,-5.029091239E-1,6.069383398E-2,1.063103478E0
3.628729271E1,-7.229625434E-2,-2.634769082E-1,-2.942365110E-1,4.015245372E-1
3.648768371E1,5.375082046E-2,-5.078997612E-1,-6.256267428E-1,8.076262375E-1
3.668807571E1,-1.826752722E-1,2.196459919E-1,-2.409337275E-2,2.866968913E-1
3.688846771E1,4.635713622E-2,3.843513429E-1,3.729931116E-1,5.375860863E-1
3.708885883E1,6.549619436E-1,-4.954855740E-1,-1.233788952E-1,8.304838671E-1
3.728925083E1,3.160348162E-3,5.086833835E-1,2.711099386E-1,5.764281145E-1
3.748964183E1,-3.499936312E-2,-2.201107331E-2,-2.580753565E-1,2.613662801E-1
3.769003283E1,6.579500437E-2,1.540974230E-1,2.288133651E-1,2.836028110E-1
3.789042483E1,-3.822380006E-1,-2.608329058E-1,3.441157751E-4,4.627524309E-1
3.809081646E1,3.307743371E-1,-4.837661237E-2,2.220368981E-1,4.013132727E-1
3.829120746E1,-5.555253029E-1,-4.951697886E-1,1.550728232E-1,7.601638390E-1
3.849159946E1,-4.957907796E-1,-8.417762816E-3,-8.616223931E-3,4.959370879E-1
3.869199046E1,-7.689099759E-2,-3.428827524E-1,-4.949782193E-1,6.070290314E-1
3.889238146E1,-7.205225229E-1,1.820740104E-1,-3.089106381E-1,8.048163975E-1
3.909277221E1,-2.202821821E-1,-3.260497451E-1,4.978417233E-2,3.966246838E-1
3.929316321E1,-1.978204846E-1,-3.306948841E-1,-2.355041802E-1,4.516129641E-1
3.949355421E1,-2.450748384E-1,-4.141551442E-3,-1.249231696E-1,2.751083917E-1
3.969394521E1,-5.282561760E-3,-9.499043971E-2,-4.051703215E-1,4.161899548E-1
3.989433621E1,1.001552105E0,5.948250294E-1,-6.492362171E-2,1.166678409E0
4.009472683E1,1.164035872E-1,2.380672097E-1,8.444517851E-2,2.781308678E-1
4.029511783E1,2.081015855E-1,-1.864765882E-1,1.473989338E-1,3.159212458E-1
4.049550883E1,-1.801516265E-1,8.401618004E-1,7.769387364E-1,1.158430084E0
4.069589983E1,-2.069221735E-1,-1.121678725E-1,2.694843113E-1,3.577991218E-1
4.089628983E1,1.115311861E0,8.317042887E-2,2.407836467E-1,1.144034367E0
4.109668063E1,-7.714011073E-1,1.694213413E-2,-1.846685857E-1,7.933783403E-1
4.129707163E1,-1.915387958E-1,-2.159134746E-1,3.750084713E-2,2.910533496E-1
4.149746163E1,3.704605401E-1,6.631259918E-1,5.106585026E-1,9.152864027E-1
4.169785263E1,-7.934557199E-1,6.110299751E-2,2.604522109E-1,8.373415731E-1
4.189824263E1,9.162808955E-2,4.670405388E-2,-5.059868097E-1,5.163328646E-1
4.209863396E1,-9.820700437E-2,-8.971068263E-1,-1.019363403E0,1.361450338E0
4.229902396E1,5.749581754E-2,8.328229934E-2,-1.960086524E-1,2.205926160E-1
4.249941496E1,-2.067863494E-1,2.114709020E-1,1.246934161E-1,3.209812840E-1
4.269980496E1,1.702500105E0,-1.789533645E-1,1.215861216E-1,1.716191743E0
4.290019496E1,1.739068031E-1,2.417107224E-1,9.841855615E-2,3.136141925E-1
4.310058483E1,1.851220727E-1,-4.230384827E-1,-2.870737016E-1,5.437306776E-1
4.330097583E1,-2.800559998E-2,4.066956341E-1,1.600416750E-1,4.379486159E-1
4.350136583E1,-1.775397956E-1,-8.380907774E-2,7.431759685E-2,2.099224756E-1
4.370175583E1,2.851692140E-1,5.602104664E-1,6.651612520E-1,9.152031132E-1
4.390214583E1,-5.782241821E-1,-5.706394911E-1,1.100686342E-1,8.198095741E-1
4.410253600E1,-3.433208466E-1,-5.611706153E-2,-3.205079138E-1,4.730154872E-1
4.430292600E1,-4.210402071E-1,-1.795731634E-1,-3.806112409E-1,5.953035307E-1
4.450331600E1,-2.925649658E-2,4.972287118E-1,-4.815621674E-1,6.928163217E-1
4.470370600E1,-1.440166384E-1,-1.908452064E-2,2.497507185E-1,2.889298054E-1
4.490409500E1,2.292884290E-1,-4.305941761E-1,-2.216073275E-1,5.358118473E-1
4.510448546E1,-5.592770502E-2,6.219136715E-1,4.829513431E-1,7.893963027E-1
4.530487546E1,6.723607332E-2,3.588917106E-2,-1.857872903E-1,2.008124483E-1
4.550526546E1,1.219133377E0,6.343481541E-1,3.201353550E-1,1.411088380E0
4.570565446E1,7.982043177E-2,-6.519297510E-2,-1.359741390E-1,1.706176773E-1
4.590604446E1,-1.792631745E-1,-4.570715725E-1,-1.810290068E-1,5.232792844E-1
4.610643271E1,7.559898496E-1,1.072431445E0,1.006861925E0,1.653904711E0
4.630682271E1,-2.811977267E-1,1.723577529E-1,4.133751690E-1,5.288273696E-1
4.650721171E1,4.465646744E-1,-3.983033895E-1,1.010866538E-1,6.068641612E-1
4.670760171E1,-4.444594085E-1,-4.585699365E-2,-1.542934328E-1,4.727086768E-1
4.690799071E1,-3.100305796E-1,6.064623594E-3,-4.625876620E-2,3.135213125E-1
4.710838063E1,2.345093936E-1,1.163455173E-1,9.662523121E-2,2.790472548E-1
4.730876963E1,-7.362027764E-1,-3.520894945E-1,2.308571339E-1,8.480899459E-1
4.750915863E1,1.422945559E-1,-2.572311759E-1,-4.190484881E-1,5.118762096E-1
4.770954763E1,-1.061668769E-1,1.694993675E-1,-2.075696886E-1,2.882474925E-1
4.790993763E1,-8.790470362E-1,1.518306285E-1,-5.654522181E-1,1.056178225E0
4.811032758E1,-2.775163651E-1,-2.425133884E-1,2.202328593E-1,4.293373833E-1
4.831071658E1,-3.630173504E-1,1.370748878E-1,3.210897148E-1,5.036563575E-1
4.851110558E1,-7.055535167E-2,2.186558843E-1,3.312504888E-1,4.031319135E-1
4.871149458E1,7.348312438E-2,2.185320556E-1,-3.083660305E-1,3.850268012E-1
4.891188358E1,5.584312603E-3,-8.750585318E-1,-7.198982835E-1,1.133142602E0
4.911227200E1,2.082582116E-1,7.342408597E-2,-4.700455815E-2,2.257698111E-1
4.931266100E1,2.524207532E-1,1.983751804E-1,2.420142740E-1,4.020445966E-1
4.951304900E1,5.030182004E-1,-8.862701654E-1,-4.681645036E-1,1.121463383E0
4.971343800E1,1.706543192E-2,6.245704889E-1,3.627758026E-1,7.224858529E-1
4.991382700E1,-1.581516564E-1,-1.777464524E-2,-1.994089633E-1,2.551309842E-1
5.011421513E1,9.092558622E-1,3.980759978E-1,-1.482156217E-1,1.003582878E0
5.031460412E1,5.614107847E-2,2.505779266E-1,-2.743270993E-2,2.582511792E-1
5.051499313E1,3.856935352E-2,-1.035830937E-2,1.135643944E-2,4.151937284E-2
5.071538112E1,9.993731380E-1,5.067923665E-1,4.130212367E-1,1.194224315E0
5.091577013E1,2.131179124E-1,1.313906908E-1,-5.249854550E-2,2.558101943E-1
5.111615788E1,4.698867351E-2,-4.734962881E-1,-1.539844871E-1,5.001178786E-1
5.131654588E1,3.247483075E-1,3.789530993E-1,6.805524230E-3,4.991124420E-1
5.151693488E1,-1.892114133E-1,-5.427463725E-2,2.128496580E-2,1.979892546E-1
5.171732288E1,9.902055562E-2,-4.911109805E-1,4.156110436E-2,5.027150197E-1
5.191771088E1,-3.578212857E-1,5.583584309E-1,1.005889773E0,1.204829634E0
5.211810058E1,-6.106600538E-2,-1.662435532E-1,-1.476420835E-2,1.777187605E-1
5.231848858E1,2.542611659E-1,-3.603147566E-1,3.106218763E-2,4.420863307E-1
5.251887658E1,-7.219537497E-1,-1.381574273E-1,-5.748653412E-1,9.331531771E-1
5.271926458E1,-6.536081433E-1,-3.559905291E-1,-1.534659863E-1,7.599241217E-1
5.291965258E1,5.005348921E-1,4.077290297E-1,4.527352154E-1,7.885095530E-1
5.312004046E1,-8.124747276E-1,-5.709403753E-1,1.906723380E-1,1.011159748E0
5.332042846E1,-4.570698142E-1,-1.747587472E-1,-1.427376866E-1,5.097327554E-1
5.352081646E1,-5.914676785E-1,-2.097519338E-1,-3.238068223E-1,7.061733121E-1
5.372120446E1,-9.129269123E-1,-2.680171132E-1,-9.091117382E-1,1.315960817E0
5.392159246E1,-2.142718434E-1,-3.754569292E-1,2.163129859E-3,4.323019867E-1
5.412197921E1,-4.049231410E-1,-4.029875249E-2,-2.248550504E-1,4.649156195E-1
5.432236721E1,-8.507792354E-1,-3.027692139E-1,1.192415729E-1,9.108858638E-1
5.452275521E1,-3.242263496E-1,-1.915248781E-1,-7.861392200E-2,3.846877350E-1
5.472314221E1,-2.964689434E-1,-2.482599169E-1,-1.233821511E0,1.292997426E0
5.492353021E1,1.665423661E-1,9.426973015E-2,-2.453950644E-1,3.111942791E-1
5.512391788E1,4.095822945E-2,2.275090814E-1,2.368318141E-1,3.309490396E-1
5.532430487E1,1.361096859E0,4.037932158E-1,3.505354226E-1,1.462364080E0
5.552469288E1,-6.740053743E-2,1.076881364E-1,2.505423427E-1,2.809110760E-1
5.572507987E1,-1.190734804E-1,-3.094388247E-1,-3.571733832E-1,4.873435191E-1
5.592546788E1,-1.869241446E-1,5.564026237E-1,2.954302430E-1,6.571176028E-1
5.612585508E1,-3.948774040E-1,-3.018696606E-1,-1.092000678E-1,5.088989202E-1
5.632624308E1,-3.642418236E-2,6.413114816E-2,3.754119575E-1,3.825881115E-1
5.652663008E1,-1.448497415E0,-4.245096743E-1,6.600816846E-1,1.647440759E0
5.672701708E1,5.469576120E-1,-6.382686496E-1,-1.897647604E-2,8.407791654E-1
5.692740408E1,-7.232990861E-1,-8.698177934E-1,-1.466627717E0,1.852226072E0
5.712779138E1,-8.493199944E-2,-7.681651413E-2,-5.896981359E-1,6.007146684E-1
5.732817838E1,-1.689364314E-1,-1.573828757E-1,-1.233023498E-2,2.312161805E-1
5.752856538E1,8.921056986E-1,-9.581919312E-1,-7.280120254E-1,1.497993946E0
5.772895238E1,3.205136955E-1,4.010542929E-1,2.919583023E-1,5.906041188E-1
5.792933938E1,-5.952218175E-1,-4.239549637E-1,-1.439934969E-1,7.448227644E-1
5.812972696E1,1.773778558E0,7.533572912E-1,4.330396950E-1,1.975186310E0
5.833011496E1,-2.223385125E-2,-6.392407417E-2,-2.678499818E-1,2.762684277E-1
5.853050096E1,2.209142596E-1,-1.712668538E-1,5.830768123E-2,2.855437462E-1
5.873088796E1,7.432287931E-1,1.147239447E0,1.255334139E0,1.855912494E0
5.893127496E1,-1.063186824E-1,-4.641287960E-3,1.599435061E-1,1.921122821E-1
5.913166183E1,3.115160167E-1,-8.036315441E-2,-1.074027345E-1,3.391692979E-1
5.933204883E1,-3.316347674E-2,-4.003697932E-1,-4.101189673E-1,5.741022163E-1
5.953243583E1,-5.316484571E-1,-2.172471136E-1,5.832799524E-2,5.772768359E-1
5.973282283E1,-5.959897116E-2,1.073046997E-1,3.326365948E-1,3.545609117E-1
5.993320883E1,-6.597421765E-1,-5.959888697E-1,-1.389586776E-1,8.998733168E-1
6.013359600E1,-1.052861661E-1,-2.221292555E-1,-4.620006382E-1,5.233270227E-1
6.033398300E1,-2.110615186E-2,-1.084273934E0,-1.038839936E0,1.501760250E0
6.053436900E1,-2.137913257E-1,5.477431417E-1,-4.261820912E-1,7.261958793E-1
6.073475600E1,-9.498987347E-2,-4.921176657E-2,2.715858817E-1,2.918968400E-1
6.093514200E1,1.239356637E0,-2.322334498E-1,-4.921596050E-1,1.353572431E0
6.113552875E1,-2.195327282E-1,7.325147986E-1,5.362769365E-1,9.340050865E-1
6.133591475E1,7.817686349E-2,-2.912163138E-1,-5.540234447E-1,6.307618732E-1
6.153630175E1,9.814678431E-1,1.105429053E0,7.008445859E-1,1.635981556E0
6.173668775E1,-1.804712564E-1,9.596437216E-2,2.314265519E-1,3.087673623E-1
6.193707375E1,-3.099811263E-2,1.939321160E-1,1.577179134E-1,2.518838796E-1
6.213746063E1,6.578994989E-1,9.353151917E-1,1.033927083E0,1.541639216E0
6.233784663E1,-4.279630482E-1,-9.683761746E-2,4.717883766E-1,6.442935411E-1
6.253823262E1,1.567949295E0,-1.211457253E-1,-4.431093112E-2,1.573246560E0
6.273861863E1,-3.905296028E-1,5.621553659E-1,5.063266307E-2,6.863641109E-1
6.293900463E1,-8.299973011E-1,-3.550471663E-1,-2.535220087E-1,9.376712745E-1
6.313939171E1,4.031105042E-1,1.541253775E-1,2.565021217E-1,5.020418797E-1
6.333977771E1,-1.241410136E0,-3.300481141E-1,5.360884666E-1,1.391912974E0
6.354016371E1,-2.024799138E-1,-6.641259044E-2,-2.698294520E-1,3.438265273E-1
6.374054971E1,-3.919292688E-1,-3.490383625E-1,-5.447283983E-1,7.564161277E-1
6.394093571E1,-8.385476470E-1,-3.269231617E-1,-6.916308403E-1,1.135074504E0
6.414132088E1,-3.343487978E-1,-2.545239031E-1,1.991713643E-1,4.650169548E-1
6.434170688E1,-8.299064040E-1,2.638900280E-1,3.200447857E-1,9.277991438E-1
6.454209288E1,-1.026743293E0,-1.481118500E-1,-4.354626834E-1,1.125062957E0
6.474247887E1,-6.712885499E-1,-5.159402490E-1,-8.934776187E-1,1.230904104E0
6.494286488E1,1.118962169E0,6.543471217E-1,-1.516725868E-1,1.305086612E0
6.514325008E1,3.112792373E-1,6.798337400E-2,6.115061045E-1,6.895333339E-1
6.534363608E1,-3.157794848E-2,2.656163275E-1,-2.635571063E-1,3.755150444E-1
6.554402208E1,9.342992902E-1,1.061905026E0,9.537522197E-1,1.705931049E0
6.574440708E1,-1.723110229E-1,5.311393738E-1,4.371828139E-1,7.091748273E-1
6.594479308E1,4.577004611E-1,7.774604857E-2,-1.983619630E-1,5.048580281E-1
6.614517846E1,-1.104520440E0,-6.638017297E-1,-4.206340909E-1,1.355555671E0
6.634556446E1,-9.242734313E-1,-5.715082288E-1,-5.419558883E-1,1.214339004E0
6.654594946E1,1.256578565E-1,-2.828537822E-1,3.608626127E-1,4.754134877E-1
6.674633546E1,-8.872674778E-3,-3.671715558E-1,-1.245599464E-1,3.878258062E-1
6.694672046E1,-4.315293208E-2,-2.748278081E-1,-6.061567664E-1,6.669471682E-1
6.714710488E1,2.206775546E-1,-6.829363704E-1,-7.407479882E-1,1.031410806E0
6.734748988E1,-1.080181837E0,-7.890276909E-1,8.087092042E-1,1.563127658E0
6.754787588E1,5.726488829E-1,-1.370303780E-1,-9.198816121E-2,5.959579594E-1
6.774826087E1,4.993819818E-2,1.249142647E0,5.089486241E-1,1.349770306E0
6.794864588E1,-4.381045699E-2,4.065288901E-1,5.961248279E-1,7.228761340E-1
6.814903083E1,7.060882449E-1,-2.198184729E-1,1.224179938E-1,7.495778384E-1
6.834941583E1,-5.144619346E-1,-1.718584262E-2,-2.633454204E-1,5.782017345E-1
6.854980083E1,-2.404739559E-1,-3.980609179E-1,-2.195087969E-1,5.142609549E-1
6.875018583E1,2.999068201E-1,1.958963871E-1,8.360652328E-1,9.095738390E-1
6.895057083E1,-6.737614870E-1,-3.802794218E-1,-3.421853781E-1,8.459656098E-1
6.915095583E1,-4.101472199E-1,-2.421687990E-1,-2.811720967E-1,5.531041649E-1
6.935134083E1,6.041245461E-1,-2.554715574E-1,-5.577759147E-1,8.610146077E-1
6.955172583E1,-4.538750648E-2,4.938673601E-2,-3.450531363E-1,3.515120799E-1
6.975211083E1,6.376606226E-2,-1.367314309E-1,4.151988924E-1,4.417597934E-1
6.995249483E1,9.581708908E-1,6.443227530E-1,8.719055355E-2,1.157948815E0
7.015287983E1,-1.708270311E-1,3.350425959E-1,5.264317393E-1,6.469666079E-1
7.035326483E1,3.459689021E-1,8.241280168E-2,1.431210488E-1,3.833666466E-1
7.055364883E1,6.302931309E-1,2.465413362E-1,2.661559284E-1,7.272489529E-1
7.075403383E1,-8.036013246E-1,-2.014098167E-1,-4.125066996E-1,9.254743542E-1
7.095441883E1,2.185331583E-1,6.603680551E-2,7.487021685E-1,7.827340149E-1
7.115480346E1,-1.632770658E0,-5.943895578E-1,1.288957894E-1,1.742369964E0
7.135518846E1,7.914344221E-2,-1.412205249E-1,-1.237577796E-1,2.037717083E-1
7.155557246E1,2.448771000E-1,-8.428438902E-1,-6.996330619E-1,1.122424625E0
7.175595646E1,-2.069874406E-1,2.303867042E-2,-5.794335604E-1,6.157254516E-1
7.195634146E1,9.893851727E-2,1.375508611E-3,1.898842156E-1,2.141185129E-1
7.215672450E1,3.040816188E-1,-5.423653126E-1,-3.765638471E-1,7.269292222E-1
7.235710850E1,1.340808123E-1,3.877478540E-1,3.254430294E-1,5.236785540E-1
7.255749350E1,4.616450518E-2,-3.346967101E-1,-2.276907563E-1,4.074262262E-1
7.275787750E1,8.401113153E-1,8.802574873E-1,7.172746658E-1,1.412488305E0
7.295826150E1,-3.352619112E-1,-4.940692782E-1,-2.630932629E-1,6.524745710E-1
7.315864533E1,3.939721286E-1,-1.043708697E-1,3.934604302E-2,4.094574797E-1
7.335902933E1,-8.473436236E-1,1.128388792E-1,1.101113439E0,1.393977989E0
7.355941333E1,-2.768822610E-1,-6.447485089E-2,1.784431040E-1,3.356526989E-1
7.375979733E1,-1.725379378E-1,-5.220187306E-1,-6.270428896E-1,8.339398542E-1
7.396018133E1,-5.079372525E-1,1.895775944E-1,-5.813677311E-1,7.949392150E-1
7.416056613E1,-1.350906584E-2,-1.584272534E-1,9.003404528E-2,1.827233394E-1
7.436095013E1,-2.451364398E-1,-1.924816370E-1,-2.805509567E-1,4.193446006E-1
7.456133412E1,2.202906013E-1,6.733603776E-2,4.256838933E-2,2.342523399E-1
7.476171713E1,-5.156708360E-1,4.348522127E-1,-1.193493232E-2,6.746519848E-1
7.496210113E1,1.360047460E0,1.074784040E0,3.319648504E-1,1.764961894E0
7.516248483E1,1.203208193E-1,3.280891478E-1,2.628898919E-1,4.372993068E-1
7.536286783E1,2.410444468E-1,1.932285428E-1,2.023494691E-1,3.693034020E-1
7.556325183E1,1.382772803E0,4.292865396E-1,2.147962451E-1,1.463722988E0
7.576363583E1,-2.827762365E-1,4.139337838E-1,4.644150734E-1,6.833629619E-1
7.596401883E1,3.986125439E-2,-1.974102557E-1,-5.888917446E-1,6.223770686E-1
7.616440250E1,-2.741627693E-1,1.246522814E-1,4.076742828E-1,5.068547486E-1
7.636478650E1,-3.767402172E-1,-3.635474443E-1,1.018902063E-1,5.333681184E-1
7.656516950E1,2.637061775E-1,2.282196470E-2,6.782348156E-1,7.280551182E-1
7.676555350E1,-9.382726550E-1,-5.359098315E-1,3.331568241E-1,1.130729142E0
7.696593650E1,-1.618828923E-1,-1.312705576E-1,-3.984606639E-2,2.121926934E-1
7.716631908E1,-2.902060449E-1,-7.236898541E-1,-1.106269479E0,1.353432197E0
7.736670208E1,-7.604823261E-2,5.085661411E-1,-3.072740734E-1,5.990327284E-1
7.756708508E1,-4.181753378E-3,-4.040992856E-1,9.923968464E-2,4.161276663E-1
7.776746908E1,7.738708258E-1,-4.488725066E-1,-6.277734041E-1,1.092914466E0
7.796785208E1,2.641636133E-1,9.425470829E-1,5.822569132E-1,1.138947115E0
7.816823483E1,-1.147899181E-1,-4.893027246E-1,-7.054792047E-1,8.661955840E-1
7.836861783E1,1.481521487E0,1.179463863E0,6.485290527E-1,2.001657027E0
7.856900083E1,2.349628061E-1,-2.987808883E-1,2.505316734E-1,4.552402211E-1
7.876938383E1,3.602288365E-1,-4.173343778E-1,-6.101807952E-2,5.546674712E-1
7.896976583E1,-5.366839468E-2,1.983883083E-1,1.302588105E0,1.318701630E0
7.917014846E1,-3.138653338E-1,-1.315579005E-2,2.443275303E-1,3.979704318E-1
7.937053146E1,-2.130987793E-1,-6.013258547E-2,-3.382870257E-1,4.043082108E-1
7.957091446E1,-5.984729528E-1,2.450737655E-1,-7.385042906E-1,9.816412853E-1
7.977129746E1,-8.018524647E-1,-3.460471928E-1,-1.957469732E-1,8.950044202E-1
7.997167946E1,-1.813704073E-1,-5.993204117E-1,-3.942978084E-1,7.399668521E-1
8.017206271E1,-6.346216798E-2,6.387943625E-1,2.448095679E-1,6.870352312E-1
8.037244471E1,-9.935388565E-1,9.972245991E-2,-5.469483137E-1,1.138515036E0
8.057282771E1,1.710800767E0,2.259436697E-1,-1.726812273E-1,1.734274665E0
8.077320971E1,3.523309827E-1,-9.083883464E-2,-5.864673480E-2,3.685488499E-1
8.097359271E1,2.550853491E-1,-3.136246204E-1,9.882143885E-2,4.161665708E-1
8.117397533E1,3.510997863E-3,4.913358986E-1,8.577029705E-1,9.884723962E-1
8.137435833E1,-2.850245237E-1,4.212808609E-1,3.058622181E-1,5.935218946E-1
8.157474033E1,9.504911304E-2,-3.055722713E-1,-1.901568174E-1,3.722477161E-1
8.177512233E1,-3.888109028E-1,-4.915096462E-1,-5.481300354E-1,8.325876447E-1
8.197550433E1,-5.707482696E-1,-5.868818760E-1,-2.762719393E-1,8.640081643E-1
8.217588696E1,-1.821221709E-1,-8.065239191E-1,-6.793948412E-1,1.070152637E0
8.237626896E1,1.194408908E-1,4.363720119E-1,4.633615613E-1,6.476037335E-1
8.257665096E1,3.953658789E-2,-9.734138846E-2,-4.230765998E-1,4.359269400E-1
8.277703296E1,-2.658731863E-2,5.742566586E-1,5.807626843E-1,8.171676027E-1
8.297741496E1,-1.910721660E-1,-1.390321553E-1,-1.657792926E-1,2.886542684E-1
8.317779671E1,1.237617880E-1,-2.570297122E-1,-6.115230173E-2,2.917547894E-1
8.337817871E1,-3.984655142E-1,7.158021927E-1,1.415840387E0,1.635772462E0
8.357856071E1,-2.128414214E-1,-4.927001894E-2,1.749038249E-1,2.798577378E-1
8.377894271E1,9.982595220E-3,3.008419275E-2,-7.324345708E-1,7.331201207E-1
8.397932371E1,-6.206465960E-1,-2.978433073E-1,-8.331292868E-1,1.080748463E0
8.417970571E1,-6.796237230E-1,-1.886070222E-1,-4.926086403E-3,7.053263642E-1
8.438008771E1,-2.795269489E-1,-3.523818851E-1,8.591031283E-2,4.579179948E-1
8.458046971E1,-5.144206285E-1,-2.723886669E-1,-4.566669166E-1,7.398437954E-1
8.478085071E1,1.366963983E-1,1.739388853E-1,-2.279670388E-1,3.176627329E-1
8.498123271E1,9.319190979E-1,-5.934941173E-1,-1.236645341E0,1.658312447E0
8.518161421E1,1.156708598E-1,1.037493795E-1,-2.006799579E-1,2.538033236E-1
8.538199621E1,2.589560449E-1,7.079748809E-2,2.895253599E-1,3.948359805E-1
8.558237721E1,1.105780602E0,4.916473329E-1,8.498884439E-1,1.478775915E0
8.578275921E1,-2.752738595E-1,3.786733150E-1,4.355204999E-1,6.394116695E-1
8.598314021E1,2.666273713E-1,-1.512154937E-1,-4.721991122E-1,5.629638374E-1
8.618352083E1,-1.784387231E-1,-1.049099490E-1,-1.919125579E-2,2.078816481E-1
8.638390183E1,-8.615558147E-1,-3.114471734E-1,-1.242164746E-1,9.245039190E-1
8.658428383E1,-1.736828387E-1,5.263908580E-2,3.535220921E-1,3.973845385E-1
8.678466483E1,-2.362446934E-1,-5.261598825E-1,7.324975729E-2,5.813959959E-1
8.698504583E1,-4.448941946E-1,1.275878400E-1,-3.375725150E-1,5.728566175E-1
8.718542663E1,1.362922430E0,-1.878084689E-1,-2.135269940E-1,1.392272728E0
8.738580763E1,-1.247715503E-1,3.445777893E-1,-7.180873156E-1,8.061955007E-1
8.758618863E1,-2.438559197E-2,-3.912577331E-1,4.216150194E-2,3.942776472E-1
8.778656963E1,1.070238352E0,1.081122398E0,1.307184577E0,2.005733604E0
8.798695063E1,-4.892433584E-1,6.247099042E-1,2.834993601E-1,8.426110700E-1
8.818733163E1,9.038715959E-1,-1.256432682E-1,-1.906582564E-1,9.322664122E-1
8.838771263E1,1.287564486E-1,2.956974208E-1,3.059060872E-1,4.445151537E-1
8.858809363E1,-9.812310338E-1,-2.663291395E-1,-2.999861240E-1,1.060064728E0
8.878847362E1,3.793266416E-1,-1.248522103E-1,4.988930225E-1,6.390391407E-1
8.898885463E1,-1.653120071E-1,-6.254843473E-1,9.135593474E-2,6.533793961E-1
8.918923658E1,-1.746527553E-1,-3.883310258E-1,-5.718466640E-1,7.129608528E-1
8.938961658E1,3.609609604E-1,-5.642971396E-1,-1.047765374E0,1.243598149E0
8.958999758E1,-5.106749944E-3,4.752704501E-2,-2.061123848E-1,2.115826412E-1
8.979037758E1,-1.323283166E-1,7.258044928E-2,1.641563922E-1,2.229933319E-1
8.999075858E1,2.087364435E0,5.295854211E-1,6.467146277E-1,2.248508575E0
9.019113796E1,-2.869050801E-1,2.507232726E-1,4.752593935E-1,6.091372386E-1
9.039151896E1,1.829794347E-1,1.076190621E-1,-4.436987638E-1,4.918657633E-1
9.059189896E1,-2.058155388E-1,2.287246436E-1,1.037762463E-1,3.247222011E-1
9.079227896E1,-4.592670798E-1,-2.586115599E-1,-3.000056744E-1,6.064730779E-1
9.099265996E1,4.402266815E-2,-7.521481812E-2,6.501638293E-1,6.559788633E-1
9.119304038E1,-1.065626860E0,-9.702743888E-1,6.832831353E-2,1.442796504E0
9.139342038E1,-2.796133459E-1,-1.407684237E-1,-5.517763495E-1,6.343946029E-1
9.159380038E1,-1.230143681E-1,-1.387573242E0,-1.333692670E0,1.928530055E0
9.179418038E1,-2.530624866E-1,4.887988567E-1,-5.138885379E-1,7.530248162E-1
9.199456038E1,2.750986218E-1,9.987517260E-3,2.291750759E-1,3.581901976E-1
9.219494000E1,1.678310394E0,7.808396816E-1,1.047818661E0,2.127054380E0
9.239532000E1,8.609302342E-2,4.323772490E-1,7.583197355E-1,8.771607124E-1
9.259570000E1,8.660448790E-1,4.326409698E-1,9.879317135E-2,9.731248799E-1
9.279608000E1,6.139943376E-3,-2.326386124E-1,-1.690747738E-1,2.876537885E-1
9.299646000E1,-7.759816051E-1,-2.479083240E-1,-2.807222307E-1,8.616327288E-1
9.319684000E1,-7.233268619E-1,5.207514763E-1,2.144391686E-1,9.167158808E-1
9.339721900E1,-5.388188362E-1,-9.902318716E-1,8.945593983E-2,1.130878978E0
9.359759900E1,-1.639215797E-1,-2.683313489E-1,-4.241702855E-1,5.280079812E-1
9.379797900E1,-5.431731939E-1,-1.138472915E0,-1.342942119E0,1.842457932E0
9.399835800E1,-3.544166088E-1,2.452294081E-1,-7.456864715E-1,8.612763255E-1
9.419873746E1,3.254554048E-2,-3.431525230E-1,8.470078558E-2,3.549466007E-1
9.439911646E1,1.306555867E0,-4.181763828E-1,6.334782392E-2,1.373307201E0
9.459949546E1,3.048479259E-1,6.026095152E-1,6.627931595E-1,9.462374216E-1
9.479987546E1,4.765661359E-1,-7.855857611E-1,-3.585258424E-1,9.863067725E-1
9.500025508E1,6.693472266E-1,9.254420996E-1,-9.208136052E-2,1.145839328E0
9.520063508E1,-6.617166996E-1,6.470134854E-2,-2.156809866E-1,6.989803595E-1
9.540101408E1,1.919718385E-1,1.462116241E-1,5.110049844E-1,5.651169081E-1
9.560139308E1,-5.948557258E-1,1.781335026E-1,1.050035834E0,1.219901690E0
9.580177208E1,-7.186656594E-1,-2.253342718E-1,-3.208945096E-1,8.186752411E-1
9.600215108E1,-1.691266000E-1,-4.062365592E-1,-1.013686776E0,1.105075938E0
9.620253008E1,2.286397815E-1,-6.009358913E-2,-4.142568111E-1,4.769655068E-1
9.640290908E1,-3.488530815E-1,-5.165022612E-1,-1.610567719E-1,6.437486637E-1
9.660328808E1,1.197641850E0,-2.785933763E-2,2.566950619E-1,1.225158968E0
9.680366708E1,3.371181488E-1,6.985256076E-1,7.756000757E-1,1.096878365E0
9.700404562E1,-3.205534769E-3,4.437873065E-1,-8.005548716E-1,9.153390362E-1
9.720442463E1,2.002559900E-1,1.027946770E-1,8.787602186E-2,2.416431302E-1
9.740480363E1,-9.097120166E-1,-1.279676706E-1,-5.516993403E-1,1.071598731E0
9.760518263E1,3.199816942E-1,2.078229040E-1,9.712861180E-1,1.043539825E0
9.780556163E1,-9.449132085E-1,-4.143329859E-1,2.774260342E-1,1.068409097E0
9.800593988E1,-4.195947647E-1,-6.208496168E-2,8.924725652E-2,4.334505529E-1
9.820631888E1,2.079702616E-1,-3.192473352E-1,-8.715639710E-1,9.512067317E-1
9.840669788E1,-2.358349711E-1,-1.539061777E-2,-3.950944841E-1,4.603853343E-1
9.860707588E1,-3.519180119E-1,-3.635953963E-1,1.451988369E-1,5.264319534E-1
9.880745487E1,-2.563348599E-2,-3.748520017E-1,-4.129134119E-1,5.582728584E-1
9.900783408E1,-1.114388555E-1,3.352231383E-1,4.020166099E-1,5.351733604E-1
9.920821208E1,-4.362133145E-1,-6.422515959E-2,-5.149782300E-1,6.779450599E-1
9.940859108E1,1.414569139E0,1.374516129E0,7.541262507E-1,2.111636058E0
9.960896908E1,2.743191421E-1,-2.356196940E-1,9.618932009E-2,3.741924869E-1
9.980934708E1,1.522731334E-1,-2.541250885E-1,2.364790440E-2,2.971967212E-1
1.000097255E2,-7.459577918E-1,1.230625212E-1,1.209059477E0,1.425981146E0
1.002101035E2,3.107707016E-2,4.682323635E-1,5.497738123E-1,7.228129600E-1
1.004104815E2,1.278078407E-1,-3.352659196E-2,-1.564593911E-1,2.047887145E-1
1.006108605E2,-2.162121832E-1,3.850013018E-1,-5.369358659E-1,6.951789947E-1
1.008112385E2,-8.333755136E-1,-3.687909842E-1,-1.305133943E-2,9.114229940E-1
1.010116174E2,-5.425252914E-1,-2.525968850E-1,-1.467243582E-1,6.161711738E-1
1.012119954E2,2.121018991E-2,7.283835411E-1,4.258260727E-1,8.439906986E-1
1.014123734E2,2.326553017E-1,1.381518245E-1,-8.134166002E-1,8.572403289E-1
1.016127514E2,1.216817975E0,9.475446939E-1,9.329970479E-1,1.802490062E0
1.018131294E2,-2.635624707E-1,-1.260122983E-3,-5.154072046E-1,5.788880293E-1
1.020135070E2,5.680745244E-1,3.801839948E-1,6.771069169E-1,9.621446420E-1
1.022138850E2,-7.785097957E-1,1.322934031E-1,9.045670033E-1,1.200758306E0
1.024142630E2,-6.670545936E-1,-2.979448438E-1,-6.393081546E-1,9.707975470E-1
1.026146410E2,6.788158417E-2,-8.002474904E-1,-1.603130996E-2,8.032813693E-1
1.028150180E2,-2.833276689E-1,-2.328493148E-1,-8.825709224E-1,9.557326009E-1
1.030153963E2,-5.974768996E-1,-2.438801378E-1,-3.329482377E-1,7.261616185E-1
1.032157743E2,2.556807697E-1,-2.518622577E-1,-2.481929064E-1,4.363564731E-1
1.034161523E2,1.560820490E-1,8.979861736E-1,5.376859903E-1,1.058228235E0
1.036165293E2,9.370148182E-2,8.462774009E-2,-2.719672024E-1,2.998465962E-1
1.038169073E2,8.849256039E-1,1.369216919E0,5.122472644E-1,1.708872598E0
1.040172845E2,2.935427614E-2,-4.869311750E-1,-2.943646312E-1,5.697492245E-1
1.042176625E2,2.734231353E-1,-6.119384617E-2,7.002977133E-1,7.542690402E-1
1.044180405E2,-8.024327159E-1,-2.210091799E-1,9.134861231E-1,1.235799425E0
1.046184175E2,-1.240396202E-1,1.630532593E-1,3.113608956E-1,3.727167826E-1
1.048187945E2,-1.563457251E-1,5.569354296E-1,-1.985076368E-1,6.115769292E-1
1.050191716E2,-3.391876221E-1,-4.833838940E-1,-1.031014681E0,1.188149614E0
1.052195486E2,-7.894723415E-1,-1.713721156E-1,-2.879246175E-1,8.576337012E-1
1.054199256E2,-5.529799461E-1,-9.207633883E-2,-2.059411556E-1,5.972241058E-1
1.056203036E2,1.356432736E-1,3.765890300E-1,4.881283939E-1,6.312588408E-1
1.058206806E2,5.252426863E-1,6.911037862E-2,-3.176312149E-2,5.307212261E-1
1.060210583E2,1.177748203E0,1.254268527E0,6.702173948E-1,1.846475487E0
1.062214353E2,1.161178797E-1,1.022259966E-1,-4.344001412E-3,1.547655863E-1
1.064218123E2,4.831832051E-1,1.443594135E-2,7.456355095E-1,8.886206835E-1
1.066221893E2,-8.330082893E-1,-5.314119458E-1,-6.483001262E-2,9.902042197E-1
1.068225663E2,-5.870759487E-1,-3.563211560E-1,-3.107247949E-1,7.537724019E-1
1.070229435E2,-2.781468332E-1,-3.755739033E-1,-5.320244431E-1,7.081464720E-1
1.072233205E2,-2.971417904E-1,3.763311207E-1,9.581126273E-2,4.889766396E-1
1.074236975E2,-3.984678388E-1,-2.385547608E-1,1.491867304E-1,4.877926537E-1
1.076240745E2,8.047785759E-1,-1.151780009E0,5.128486156E-1,1.495753806E0
1.078244515E2,2.119874954E-1,8.204693198E-1,5.684179068E-1,1.020395766E0
1.080248278E2,-4.513477981E-1,3.441044390E-1,1.927067041E-1,5.993818262E-1
1.082252048E2,7.793610692E-1,1.535616219E-1,-4.078933224E-2,7.953921156E-1
1.084255808E2,-4.668996632E-1,4.035301507E-2,4.758301377E-1,6.678607499E-1
1.086259578E2,5.554026365E-1,4.376497567E-1,9.725600481E-1,1.202448521E0
1.088263348E2,-8.334583044E-1,-1.336167336E0,-3.971915320E-2,1.575301084E0
1.090267111E2,-1.680664569E-1,3.807110488E-1,-2.818495035E-1,5.026195174E-1
1.092270881E2,1.291021943E0,3.571220636E-1,-5.967785120E-1,1.466430502E0
1.094274641E2,6.086895615E-2,-6.455432177E-1,-1.548077017E-1,6.666307075E-1
1.096278411E2,-4.798180461E-1,4.839746282E-3,2.625112236E-1,5.469560522E-1
1.098282171E2,3.709698617E-1,4.262804985E-1,1.290028691E0,1.408370593E0
1.100285938E2,-5.135014653E-2,1.224990115E-1,6.262467504E-1,6.401779734E-1
1.102289698E2,-3.795810938E-1,2.752228677E-1,-2.475408912E-1,5.301942347E-1
1.104293458E2,-2.808478661E-2,-5.657195449E-1,-7.901508212E-1,9.721963171E-1
1.106297228E2,-8.586797714E-1,4.469365999E-2,1.653175503E-1,8.755902955E-1
1.108300988E2,-1.555243880E-1,6.092804074E-1,-1.098129749E0,1.265424591E0
1.110304746E2,4.045287669E-1,6.166669726E-1,8.726332784E-1,1.142545630E0
1.112308506E2,1.520893350E-2,1.825067848E-1,-2.389898002E-1,3.010916186E-1
1.114312266E2,8.639847636E-1,6.478043199E-1,4.742010534E-1,1.179401012E0
1.116316036E2,2.474273443E-1,1.431031674E-1,1.371337194E-2,2.861588087E-1
1.118319796E2,7.420459390E-1,-2.462415397E-1,2.575284541E-1,8.231573216E-1
1.120323557E2,4.115280211E-1,3.213849366E-1,4.932675958E-1,7.183011281E-1
1.122327317E2,-3.928104937E-1,2.300967723E-1,4.203444719E-1,6.196241471E-1
1.124331077E2,-1.201217473E-1,-4.507126808E-1,-5.635262728E-1,7.315278634E-1
1.126334837E2,1.300127804E-1,-7.314946502E-2,-7.458206415E-1,7.605935818E-1
1.128338587E2,-7.665195465E-1,-4.578047693E-1,-4.695035517E-3,8.928378718E-1
1.130342348E2,-1.696248725E-2,-6.569736004E-1,-3.615708649E-2,6.581864268E-1
1.132346108E2,4.088080525E-1,-3.585734069E-1,3.242609203E-1,6.331224656E-1
1.134349868E2,-2.092051655E-1,3.502753377E-2,-2.277098745E-1,3.112001227E-1
1.136353628E2,1.353085637E0,4.203420877E-1,-1.393285841E-1,1.423706664E0
1.138357378E2,6.485043764E-1,1.396382153E-1,3.550090492E-1,7.523883189E-1
1.140361144E2,-5.119174719E-1,7.447788715E-1,-5.510528684E-1,1.058496258E0
1.142364894E2,-2.270223796E-1,-7.924737781E-2,6.041852832E-1,6.502762214E-1
1.144368654E2,2.854714394E-1,-2.267180197E-2,1.573348343E-1,3.267448598E-1
1.146372414E2,2.242616564E-1,1.450084001E-1,-3.557031155E-1,4.447981935E-1
1.148376164E2,-1.419076025E-1,-6.479484588E-2,-1.206625700E0,1.216668287E0
1.150379913E2,-7.993677855E-1,-5.996347666E-1,-9.993185103E-2,1.004259471E0
1.152383673E2,1.378964540E-2,-8.539337516E-1,1.511603445E-1,8.673191201E-1
1.154387422E2,-9.128929675E-2,1.120669127E0,8.072940707E-1,1.384180893E0
1.156391182E2,-5.047827363E-1,2.915428877E-1,-7.123501897E-1,9.204594825E-1
1.158394933E2,1.481226563E0,5.446671247E-1,1.621224731E-1,1.586498694E0
1.160398680E2,1.235370934E-1,-1.872780323E-1,1.235237904E-2,2.246932489E-1
1.162402430E2,1.681959070E-2,1.704550683E-1,2.187547386E-1,2.778335196E-1
1.164406190E2,-6.546671391E-1,-1.722703278E-1,4.087262750E-1,7.907738594E-1
1.166409940E2,-2.892829478E-1,-2.981018424E-1,-7.562880963E-2,4.222191956E-1
1.168413690E2,9.016920812E-3,1.298263669E0,1.920979470E-1,1.312429610E0
1.170417445E2,-7.526919246E-1,-4.916621447E-1,-8.298571706E-1,1.223494880E0
1.172421195E2,-6.746583581E-1,-3.709237576E-1,-2.628408074E-1,8.135315754E-1
1.174424945E2,-2.522643507E-1,-7.580057979E-1,-4.231871367E-1,9.040450458E-1
1.176428695E2,2.239742130E-1,6.732488871E-1,6.367263198E-1,9.533356798E-1
1.178432445E2,-2.199251503E-1,-5.418338180E-1,-5.312697291E-1,7.900623286E-1
1.180436188E2,6.916052699E-1,8.257182837E-1,2.673325539E-1,1.109772602E0
1.182439928E2,-1.533841193E-1,-3.451488018E-1,-1.700816453E-1,4.142247572E-1
1.184443678E2,7.549578547E-1,-2.850925177E-2,1.077367514E-1,7.631391403E-1
1.186447428E2,-4.939996600E-1,5.552504957E-2,3.848418891E-1,6.286668234E-1
1.188451178E2,1.062405556E-1,3.935161829E-1,5.586327910E-1,6.915292019E-1
1.190454921E2,-8.139671087E-1,-4.403833151E-1,-1.019629359E0,1.376998166E0
1.192458671E2,4.830304980E-1,1.696831286E-1,-4.309951067E-1,6.692291148E-1
1.194462421E2,-7.145540118E-1,-3.647052050E-1,-6.882102489E-1,1.056991329E0
1.196466161E2,6.936464310E-1,-2.454835325E-1,2.548862100E-1,7.787005304E-1
1.198469911E2,1.160855368E-1,4.043460488E-1,5.067870021E-1,6.586384779E-1
1.200473655E2,1.850370467E-1,-4.863039032E-2,-3.012843430E-1,3.568975747E-1
1.202477405E2,-5.324280262E-1,-2.312245965E-2,-2.431234419E-1,5.857672398E-1
1.204481145E2,-6.855619140E-3,-4.097149968E-1,-2.709141076E-1,4.912309353E-1
1.206484885E2,4.848569036E-1,8.898813128E-1,1.023414969E0,1.440261493E0
1.208488635E2,-6.156594157E-1,1.054448113E-1,9.404287934E-1,1.128964765E0
1.210492368E2,4.527530447E-2,2.304230034E-1,-1.322541535E-1,2.695102499E-1
1.212496108E2,-8.543969393E-1,-1.033664107E0,-1.076825023E0,1.719885969E0
1.214499858E2,1.416345984E-1,1.975377500E-1,-3.148905337E-1,3.977908626E-1
1.216503598E2,-5.964601636E-1,-1.948322207E-1,-2.537022233E-1,6.768228269E-1
1.218507338E2,6.398286819E-1,8.117139935E-1,1.029285312E0,1.458659865E0
1.220511076E2,-2.704085112E-1,8.406618237E-2,3.476473093E-1,4.483821334E-1
1.222514816E2,6.632468104E-1,-6.350407004E-1,2.388452291E-1,9.487992761E-1
1.224518556E2,-5.980056524E-1,-3.208988905E-1,-3.423607945E-1,7.601301020E-1
1.226522296E2,-4.540319741E-1,-2.779596150E-1,-1.315177828E-1,5.483643937E-1
1.228526036E2,5.208755136E-1,3.723957539E-1,2.073301971E-1,6.730347010E-1
1.230529780E2,-2.296863049E-1,-2.564303875E-1,4.502893388E-1,5.668093427E-1
1.232533520E2,3.690300882E-2,2.467887551E-1,-3.036164343E-1,3.930005864E-1
1.234537260E2,-7.491829246E-2,-9.332324862E-1,-1.340015888E0,1.634679848E0
1.236541000E2,1.478295773E-1,1.037385836E-1,-2.754209638E-1,3.293508539E-1
1.238544740E2,-2.558408976E-1,3.341825008E-1,3.683663011E-1,5.593087166E-1
1.240548470E2,1.547892809E0,-1.040279269E-1,5.224541426E-1,1.636994896E0
1.242552210E2,-1.506885141E-1,1.394913048E-1,2.343145907E-1,3.115576669E-1
1.244555950E2,1.845399290E-1,-1.479656547E-1,-1.523294151E-1,2.813415559E-1
1.246559680E2,-6.115161180E-1,3.445858359E-1,-2.925799489E-1,7.604566966E-1
1.248563420E2,-1.747229993E-1,-4.310577512E-1,-3.054354787E-1,5.564438363E-1
1.250567145E2,8.257597089E-1,6.453625560E-1,5.697085261E-1,1.192870374E0
1.252570885E2,-7.712973356E-1,-4.777161181E-1,3.846818209E-1,9.854401924E-1
1.254574615E2,-3.413367271E-1,-8.035417646E-3,-1.868094504E-1,3.891954522E-1
1.256578355E2,-1.878501326E-1,-5.183848143E-1,-1.201369643E0,1.321854571E0
1.258582085E2,8.194116503E-2,1.366498694E-2,-9.087147713E-1,9.125040394E-1
1.260585826E2,2.238713950E-2,-2.328731865E-2,-2.812872827E-1,2.831360426E-1
1.262589556E2,1.305565238E0,3.050140142E-1,4.010888934E-1,1.399430756E0
1.264593286E2,4.791529384E-3,2.502020597E-1,-7.950796187E-2,2.625748378E-1
1.266597026E2,6.726338714E-2,-1.067167819E-1,-1.205510497E-1,1.744860750E-1
1.268600756E2,-3.236241639E-1,6.451168656E-1,-4.615266621E-2,7.232139644E-1
1.270604496E2,-6.039771438E-1,-1.322235167E-1,-4.338504672E-1,7.553129659E-1
1.272608226E2,7.767147422E-1,1.947139949E-1,4.583236873E-1,9.226374872E-1
1.274611956E2,-9.815460443E-1,-6.688955426E-1,-2.741180956E-1,1.219013788E0
1.276615686E2,-1.322472841E-1,-8.918257803E-2,-2.508337200E-1,2.972548258E-1
1.278619416E2,1.220677048E-1,-1.097296953E0,-1.207923174E0,1.636471669E0
1.280623142E2,-1.973927617E-1,6.868542433E-1,-3.681569397E-1,8.039105586E-1
1.282626872E2,-6.735035777E-2,1.379742920E-1,9.381365031E-2,1.799276992E-1
1.284630602E2,1.180890203E0,8.435277939E-1,8.161941171E-1,1.664996590E0
1.286634332E2,-4.683030844E-1,1.993829161E-1,4.389699399E-1,6.721279151E-1
1.288638062E2,8.382561803E-1,-1.011647135E-1,-3.783233762E-1,9.252222976E-1
1.290641790E2,-3.499980569E-1,6.517418623E-1,-4.697475433E-1,8.763154965E-1
1.292645520E2,-3.536473811E-1,-4.446639717E-1,-3.852710128E-1,6.864592276E-1
1.294649240E2,1.830331236E-1,-4.576424137E-2,1.483420283E-1,2.400017656E-1
1.296652970E2,-6.139035523E-2,-2.634088397E-1,2.996267080E-1,4.036448398E-1
1.298656700E2,-3.800713923E-3,7.619776577E-2,3.141655624E-1,3.232963741E-1
1.300660420E2,5.200296044E-1,1.129343640E-2,-3.447145224E-1,6.240083598E-1
1.302664150E2,2.070868760E-1,-3.559630737E-2,9.448920190E-2,2.303915810E-1
1.304667880E2,-6.345226765E-1,-8.427043259E-2,-3.596019447E-1,7.341894111E-1
1.306671600E2,4.197595716E-1,-1.132060438E-1,2.203001976E-1,4.873867903E-1
1.308675330E2,-6.613249183E-1,-3.985601962E-1,9.434027970E-2,7.778823599E-1
1.310679054E2,-3.034582138E-1,-1.377259791E-1,3.566354811E-1,4.881026524E-1
1.312682774E2,-7.453595400E-1,-2.170461416E-2,-2.715026736E-1,7.935651428E-1
1.314686504E2,-3.743179888E-2,3.550402820E-1,-8.191860914E-1,8.935997951E-1
1.316690224E2,-2.611098886E-1,-2.811986208E-1,-1.531910896E-1,4.131810114E-1
1.318693944E2,-1.258597225E-1,-1.505430639E-1,1.307222694E-1,2.357799727E-1
1.320697671E2,-1.200970635E-1,-2.998161912E-1,-4.039121792E-2,3.254911729E-1
1.322701391E2,-7.248740196E-1,-2.029105574E-1,-4.380413294E-1,8.709163248E-1
1.324705111E2,8.215113729E-2,-8.087847829E-1,-8.885188103E-1,1.204303662E0
1.326708831E2,-7.124990225E-1,-9.992208332E-2,-9.344700575E-1,1.179353029E0
1.328712561E2,-4.062502682E-1,-2.184355706E-1,-4.816158414E-1,6.668637024E-1
1.330716277E2,6.772710085E-1,-2.118577957E-1,-2.943553589E-2,7.102437577E-1
1.332719997E2,-4.262266457E-1,7.814009190E-1,3.842675388E-1,9.694937292E-1
1.334723717E2,-6.747161150E-1,-5.066611767E-1,-6.033672094E-1,1.037303896E0
1.336727437E2,1.156909466E0,2.861648500E-1,1.427906901E-1,1.200299552E0
1.338731157E2,-3.146713972E-1,-2.690256536E-1,1.272638440E-1,4.331154309E-1
1.340734878E2,3.759840429E-1,-1.697683781E-1,5.185952187E-1,6.626660573E-1
1.342738598E2,4.923130870E-1,5.726659298E-1,1.250544310E0,1.460883128E0
1.344742318E2,2.797732875E-2,2.808957100E-1,4.523966908E-1,5.332428121E-1
1.346746038E2,-2.552372031E-2,-3.445486426E-1,-3.425945938E-1,4.865555293E-1
1.348749748E2,1.215345487E-1,5.420272946E-1,4.903979003E-1,7.409820074E-1
1.350753470E2,-1.105642617E-1,-4.270635843E-1,3.715513274E-2,4.427056188E-1
1.352757190E2,1.714000553E-1,4.022248387E-1,5.663150549E-1,7.154547793E-1
1.354760910E2,-8.675336838E-1,-7.714699507E-1,4.784446359E-1,1.255663110E0
1.356764620E2,-4.223352969E-1,-9.642814100E-2,4.772831500E-2,4.358250583E-1
1.358768340E2,-9.270118922E-2,-1.043435931E-1,-5.225679278E-1,5.408866195E-1
1.360772056E2,-5.016791821E-1,-1.524048205E-2,-3.536017239E-1,6.139612798E-1
1.362775766E2,-2.556720674E-1,-1.260615289E-1,2.621466815E-1,3.872732856E-1
1.364779486E2,-5.172199011E-1,-4.828470349E-1,2.640944421E-1,7.552506601E-1
1.366783196E2,-1.434564143E-1,6.214648485E-1,4.220649302E-1,7.648118109E-1
1.368786916E2,2.127277106E-1,-5.221451446E-2,-1.190680712E-1,2.493123342E-1
1.370790628E2,1.184273005E0,8.809984922E-1,4.031096399E-1,1.530084401E0
1.372794348E2,-4.260085151E-2,-1.402360350E-1,-2.921982408E-1,3.268956867E-1
1.374798058E2,2.192564756E-1,-1.583719850E-1,2.141227275E-1,3.449690278E-1
1.376801778E2,-6.930846572E-1,-2.758444287E-2,7.619796395E-1,1.030407790E0
1.378805488E2,-5.526762605E-1,6.186810136E-2,1.881146431E-1,5.870824727E-1
1.380809201E2,2.557183504E-1,5.584934950E-1,1.033060104E-1,6.228795955E-1
1.382812911E2,-8.644934744E-2,-1.679249108E-1,-4.012185633E-1,4.434507874E-1
1.384816631E2,-4.288736284E-1,-3.963862956E-1,-1.858676374E-1,6.128633315E-1
1.386820341E2,-2.573501877E-2,-2.895060228E-3,2.277063280E-1,2.291742664E-1
1.388824051E2,1.186373532E-1,1.245521307E-1,6.029509306E-1,6.270070809E-1
1.390827761E2,2.158358395E-1,1.254819483E-1,-8.310130239E-2,2.631285910E-1
1.392831471E2,2.162824422E-1,-3.477398753E-1,-6.104401946E-1,7.350771027E-1
1.394835181E2,1.819222420E-1,2.346342802E-2,-2.668604851E-1,3.238221010E-1
1.396838891E2,-4.850672930E-2,-3.863368416E-3,-4.325710237E-2,6.510764401E-2
1.398842601E2,-1.763786562E-2,5.109016895E-1,6.627199650E-1,8.369763334E-1
1.400846305E2,-9.781370312E-2,1.992296875E-1,-1.051450223E-1,2.455920695E-1
1.402850015E2,8.901559711E-1,9.875512123E-2,-2.987860516E-2,8.961154824E-1
1.404853725E2,-5.752881169E-1,-2.635888010E-2,-3.449763954E-1,6.713120894E-1
1.406857435E2,-4.112998247E-1,-1.779666394E-1,-9.135032445E-2,4.573669777E-1
1.408861145E2,2.804891467E-1,5.261086226E-1,2.701672614E-1,6.545645830E-1
1.410864846E2,1.154412106E-1,-1.102240384E-1,2.341161221E-1,2.833484963E-1
1.412868556E2,-2.418617457E-1,5.593548529E-3,-2.412064672E-1,3.416269188E-1
1.414872266E2,-2.271433920E-1,-2.848874629E-1,-6.527725458E-1,7.475740656E-1
1.416875966E2,1.769844443E-1,2.441239506E-1,-4.783502519E-1,5.654546492E-1
1.418879676E2,-1.913564354E-1,1.898583621E-1,5.928420424E-1,6.512489311E-1
1.420883387E2,6.237405539E-1,1.247901097E-2,1.329697371E-1,6.378784800E-1
1.422887087E2,2.981751263E-1,2.956413627E-1,3.160632253E-1,5.255551195E-1
1.424890797E2,-8.147802204E-2,6.661858410E-2,-1.977304220E-1,2.239955884E-1
1.426894497E2,-3.380333483E-1,5.367257632E-3,-5.906878710E-1,6.805935005E-1
1.428898207E2,-1.508985646E-2,-1.958868206E-1,-5.117726978E-3,1.965338174E-1
1.430901908E2,3.630702496E-1,2.294387370E-1,6.317228079E-1,7.638951801E-1
1.432905608E2,-4.638689384E-2,-1.587844789E-1,5.048088431E-1,5.312214442E-1
1.434909318E2,-2.234626561E-1,-2.167515457E-1,-1.986129135E-1,3.692748037E-1
1.436913018E2,-2.268934548E-1,-9.324955940E-1,-7.978819013E-1,1.248056169E0
1.438916718E2,1.786564291E-1,5.422620773E-1,-1.985880435E-1,6.044861381E-1
1.440920424E2,1.181111410E-1,1.568474770E-1,3.980893195E-1,4.438766483E-1
1.442924124E2,5.189204216E-1,2.945412993E-1,4.088886380E-1,7.233414818E-1
1.444927824E2,3.412764519E-2,3.653977811E-1,6.726910919E-2,3.731023555E-1
1.446931524E2,3.222246468E-1,-1.139798388E-1,-4.319700599E-2,3.445085021E-1
1.448935224E2,-2.782420516E-1,7.612431645E-1,3.055920899E-1,8.661964675E-1
1.450938929E2,-3.151200116E-1,-3.411845863E-1,-2.572067380E-1,5.309075717E-1
1.452942629E2,7.115893364E-1,3.435586691E-1,3.148276508E-1,8.505929652E-1
1.454946329E2,-9.359272122E-1,-3.466453850E-1,6.533025503E-1,1.192865035E0
1.456950029E2,-1.361258477E-1,-2.581696510E-1,1.003695354E-1,3.086354788E-1
1.458953729E2,-2.330119163E-1,-1.186785996E-1,-1.670547277E-1,3.103005723E-1
1.460957428E2,-7.872764021E-3,2.100376636E-1,-2.503469884E-1,3.268813472E-1
1.462961128E2,-4.862369597E-1,-4.646515548E-1,-4.993391689E-3,6.725714701E-1
1.464964828E2,1.895516217E-1,-8.287603259E-1,-2.923433185E-1,8.990206399E-1
1.466968528E2,-1.307481378E-1,8.274437189E-1,5.174687505E-1,9.846482068E-1
1.468972228E2,-5.304288492E-2,-5.401230976E-2,-2.073108852E-1,2.207004313E-1
1.470975923E2,5.591816902E-1,1.331866384E0,5.065470934E-1,1.530732565E0
1.472979623E2,-1.201513261E-1,-4.213223457E-1,-1.977638751E-1,4.806863951E-1
1.474983323E2,5.757611990E-1,4.580130428E-2,1.925203055E-1,6.088208158E-1
1.476987013E2,-6.308275461E-1,-1.419258304E-2,6.633673310E-1,9.155331989E-1
1.478990713E2,-4.698202610E-1,-1.967043281E-1,8.438920975E-2,5.162801653E-1
1.480994409E2,-1.671572179E-1,-1.877165586E-1,-3.240240514E-1,4.100861224E-1
1.482998099E2,-5.764706060E-2,2.186426371E-1,-4.519573152E-1,5.053644241E-1
1.485001799E2,-2.145810872E-1,-4.619544744E-1,3.897392005E-2,5.108482611E-1
1.487005489E2,-4.936543107E-1,-5.562366247E-1,-3.420946598E-1,8.186101132E-1
1.489009189E2,1.248363033E-1,5.602746010E-1,3.625833690E-1,6.789391951E-1
1.491012877E2,-6.455538422E-2,-1.347652227E-1,-3.650054634E-1,3.944084826E-1
1.493016577E2,4.188950956E-1,1.030835152E0,2.191931009E-2,1.112912695E0
1.495020267E2,7.588709891E-2,7.236099243E-2,-2.299384624E-1,2.527185420E-1
1.497023957E2,2.327932268E-1,-3.447697461E-1,1.096594036E-1,4.302139573E-1
1.499027657E2,8.361057043E-1,1.302993417E0,1.307230949E0,2.026256980E0
1.501031345E2,2.119850218E-1,3.286407590E-1,1.445120126E-1,4.169245972E-1
1.503035035E2,3.983789980E-1,3.542048335E-1,3.297180235E-1,6.268020941E-1
1.505038725E2,-6.635132432E-1,-5.297116637E-1,-7.432758212E-1,1.128407381E0
1.507042425E2,-4.765666425E-1,-4.392041862E-1,-3.319624364E-1,7.281587335E-1
1.509046115E2,-7.715185881E-1,-5.015063286E-1,-7.741372287E-2,9.234405307E-1
1.511049806E2,3.330372274E-1,1.086129397E-1,2.072251588E-1,4.070047075E-1
1.513053496E2,-2.136053052E-3,9.149824083E-2,-1.807505041E-1,2.026011736E-1
1.515057186E2,1.306256413E0,-2.425897866E-1,-4.386909306E-1,1.399144508E0
1.517060876E2,2.957624495E-1,-9.915887564E-2,-4.716846645E-1,5.655036091E-1
1.519064566E2,5.577604845E-2,2.932121158E-1,6.713493466E-1,7.347069196E-1
1.521068274E2,-2.708468139E-1,5.369914770E-1,1.019260406E0,1.183473540E0
1.523071964E2,-1.194876209E-1,1.409166604E-1,3.412511647E-1,3.880556070E-1
1.525075654E2,1.305984735E0,4.418266714E-1,5.441553593E-1,1.482198365E0
1.527079344E2,-8.197363019E-1,-3.978023529E-1,-7.588030100E-1,1.185747159E0
1.529083034E2,-2.914659083E-1,-1.044527292E0,-1.537273526E-1,1.095272450E0
1.531086710E2,-1.112861782E-1,5.248863101E-1,5.536705852E-1,7.710002392E-1
1.533090400E2,-5.281537771E-1,-6.912226081E-1,1.563678980E-1,8.838472864E-1
1.535094090E2,1.819014736E-2,8.285565302E-3,-5.169768333E-1,5.173631010E-1
1.537097780E2,8.605483770E-1,-6.998473406E-1,-7.557109594E-1,1.342173187E0
1.539101470E2,-2.074433267E-1,4.900956452E-1,-3.512394428E-1,6.376485093E-1
1.541105150E2,1.620164961E-1,2.424086481E-1,2.582088113E-1,3.894651305E-1
1.543108840E2,-1.265801191E-1,3.260639608E-1,1.189540863E0,1.239898261E0
1.545112530E2,3.199867159E-2,-2.462614030E-1,9.939654171E-2,2.674850764E-1
1.547116220E2,3.312541544E-1,5.337707400E-1,1.214870512E-1,6.398434350E-1
1.549119900E2,-7.590247989E-1,-4.159870744E-1,-8.343814015E-1,1.202229685E0
1.551123595E2,-4.928440750E-1,-4.495069385E-2,-2.012256533E-2,4.952986622E-1
1.553127275E2,-4.669602513E-1,-6.276822090E-1,-3.537026048E-1,8.585699532E-1
1.555130965E2,2.472172305E-2,2.557262182E-1,2.892342210E-1,3.868636670E-1
1.557134655E2,-1.142112166E-1,3.405569494E-1,-1.198998988E-1,3.786808993E-1
1.559138335E2,8.017814755E-1,7.598738670E-1,-1.217169091E-1,1.111340107E0
1.561142019E2,2.234799787E-2,4.514964670E-2,-3.895668387E-1,3.928106993E-1
1.563145699E2,-2.632202581E-2,1.951174289E-1,-9.031136334E-2,2.166097931E-1
1.565149389E2,-1.321503222E-1,5.190227032E-1,8.873983026E-1,1.036496031E0
1.567153069E2,2.259551734E-1,-8.917080238E-3,2.466206253E-1,3.345997422E-1
1.569156749E2,2.825996578E-1,2.593125701E-1,1.629171371E-1,4.167104140E-1
1.571160435E2,-3.830219507E-1,2.403398417E-2,-8.028333187E-1,8.898453713E-1
1.573164115E2,-4.818085134E-1,-6.481148005E-1,-1.878821105E-1,8.291513285E-1
1.575167795E2,-1.468808353E-1,-3.647564948E-1,4.008762240E-1,5.615363098E-1
1.577171485E2,3.340024650E-1,9.266792983E-2,5.084170103E-1,6.153314946E-1
1.579175165E2,-2.162853628E-1,-4.937320054E-1,-3.532205522E-1,6.444496953E-1
1.581178853E2,2.696147263E-1,-9.223021269E-1,-9.662962556E-1,1.362740536E0
1.583182533E2,3.252904415E-1,6.195991114E-2,-7.923514843E-1,8.587629339E-1
1.585186213E2,3.822753727E-1,-1.543925256E-1,4.992862344E-1,6.475015493E-1
1.587189903E2,3.648471832E-1,1.164023280E0,1.172300100E0,1.691848453E0
1.589193583E2,-6.102338061E-2,4.757236838E-1,7.520424128E-1,8.919667409E-1
1.591197265E2,6.243180633E-1,3.758546114E-1,2.257816307E-2,7.290744176E-1
1.593200945E2,-5.049497485E-1,-3.197630048E-1,-9.320630133E-2,6.049049862E-1
1.595204625E2,-6.620746851E-1,-2.093532681E-1,-5.776116848E-1,9.032203153E-1
1.597208305E2,-2.875148952E-1,-1.613631397E-1,5.968623757E-1,6.818706427E-1
1.599211985E2,3.630332947E-1,1.626723260E-1,5.007714033E-1,6.395525444E-1
1.601215652E2,-9.844078422E-1,1.012159418E-2,-6.854074001E-1,1.199560149E0
1.603219332E2,8.533343077E-1,-3.754974008E-1,-9.838035107E-1,1.355377101E0
1.605223012E2,9.452261776E-2,-4.403804988E-2,-2.659738660E-1,2.856850932E-1
1.607226692E2,1.275118589E-1,1.721966267E-1,9.222096205E-2,2.332716405E-1
1.609230372E2,1.111967325E0,5.099312067E-1,8.859674335E-1,1.510443465E0
1.611234034E2,2.848259639E-3,8.921400309E-1,9.415662289E-1,1.297100193E0
1.613237714E2,4.837338254E-2,3.150925934E-1,-2.613964677E-1,4.122516706E-1
1.615241394E2,-5.655400157E-1,7.973521203E-2,-4.863390028E-1,7.501458785E-1
1.617245064E2,-8.334804773E-1,-3.236802816E-1,-4.015811980E-1,9.801663580E-1
1.619248744E2,3.816324100E-2,3.874809444E-1,9.984925389E-1,1.071720703E0
1.621252430E2,-3.921706975E-1,-4.760049582E-1,1.189857870E-1,6.281211616E-1
1.623256100E2,-2.545938082E-2,-1.382522583E-1,-2.964789569E-1,3.281183306E-1
1.625259780E2,-4.042166471E-1,-8.655305505E-1,-8.973079920E-1,1.310608967E0
1.627263450E2,6.233975291E-1,1.644296348E-1,-4.782315195E-1,8.027247164E-1
1.629267130E2,-3.251997828E-1,-6.362845749E-2,7.187234759E-1,7.914334553E-1
1.631270795E2,9.381229281E-1,5.458266288E-2,2.314088196E-1,9.677830011E-1
1.633274465E2,-1.971395500E-2,7.559735775E-1,7.687512040E-1,1.078361305E0
1.635278145E2,2.795306444E-1,-1.070895717E-1,-4.644838274E-1,5.525855440E-1
1.637281815E2,-1.048119068E0,2.827717066E-1,-5.412274599E-1,1.213029506E0
1.639285485E2,4.698552564E-2,-7.598125935E-1,-3.536015451E-1,8.393788593E-1
1.641289175E2,1.202915236E-2,3.459798396E-1,2.253444940E-1,4.130700798E-1
1.643292845E2,-3.325909376E-1,1.408713013E-1,1.658037305E-1,3.974321733E-1
1.645296515E2,-7.968798280E-1,1.094320297E0,-9.887953103E-2,1.357325140E0
1.647300185E2,5.558102727E-1,-1.188927650E0,-1.905236363E0,2.313525366E0
1.649303855E2,-3.515166640E-1,-4.399686456E-1,-4.885838330E-1,7.455538452E-1
1.651307521E2,-2.384486645E-1,9.334369898E-1,4.273593724E-1,1.053944217E0
1.653311191E2,6.437022090E-1,1.559694052E0,1.973230362E0,2.596273508E0
1.655314861E2,-4.464919269E-1,7.079243660E-1,6.149137616E-1,1.038571559E0
1.657318531E2,-1.415019631E-1,7.359702587E-1,-2.113715857E-1,7.786866986E-1
1.659322201E2,-1.072376728E0,-7.776271701E-1,-1.242529511E0,1.816198075E0
1.661325870E2,-4.548522830E-1,-1.338624805E-1,-3.533353209E-1,5.913168458E-1
1.663329540E2,-1.768527180E-1,-2.185983181E0,-7.819196582E-1,2.328346560E0
1.665333210E2,1.693453491E-1,7.722452283E-1,4.962052405E-1,9.334131885E-1
1.667336880E2,-5.495265126E-1,-1.026898503E0,-7.671538591E-1,1.394641519E0
1.669340550E2,1.064853430E0,1.083238482E0,7.656888962E-1,1.701057883E0
1.671344207E2,-7.226187736E-2,1.407369226E-1,-3.451320231E-1,3.796640274E-1
1.673347877E2,6.950751543E-1,-2.036979496E-1,3.631146550E-1,8.102311877E-1
1.675351547E2,-7.674524188E-1,-1.772404015E-1,6.958354115E-1,1.050992053E0
1.677355217E2,-6.943166852E-1,-2.165797353E-2,-4.715310335E-1,8.395750370E-1
1.679358877E2,1.393470354E-2,-5.275564790E-1,-7.658277154E-1,9.300548931E-1
1.681362553E2,-4.802348316E-1,-1.621767282E-1,-5.406938791E-1,7.411320095E-1
1.683366213E2,-5.425060987E-1,-4.130500853E-1,-3.019218147E-1,7.457077325E-1
1.685369883E2,1.581090093E-1,-1.108048677E0,-7.467957735E-1,1.345538650E0
1.687373543E2,1.370938867E-1,6.786865592E-1,3.791097701E-1,7.893886224E-1
1.689377213E2,3.955768347E-1,-1.637227833E-1,-2.199110240E-1,4.812972474E-1
1.691380867E2,1.062312245E0,1.170143723E0,5.495415330E-1,1.673242223E0
1.693384537E2,-3.294373751E-1,-3.109722584E-2,-2.299592048E-1,4.029606152E-1
1.695388197E2,6.517230868E-1,1.314287335E-1,6.942321658E-1,9.612360761E-1
1.697391857E2,-6.049705148E-1,5.015011132E-2,5.811170936E-1,8.403579201E-1
1.699395527E2,-4.586446285E-1,-1.673232317E-1,1.306901872E-1,5.054026951E-1
1.701399193E2,-4.610173106E-1,-3.807585537E-1,-1.092146397E0,1.245109549E0
1.703402853E2,2.441501766E-1,1.897861660E-1,-4.965363145E-1,5.849584679E-1
1.705406513E2,3.751565814E-1,-5.500793457E-1,2.685911208E-2,6.663716373E-1
1.707410173E2,9.535705447E-1,-1.237357631E-1,2.194214314E-1,9.862824582E-1
1.709413843E2,2.249561101E-1,7.896395326E-1,5.585321188E-1,9.930226435E-1
1.711417499E2,3.190507591E-1,5.773456693E-1,-4.097798169E-1,7.765570855E-1
1.713421159E2,1.907093823E-1,5.733514428E-1,7.426707745E-1,9.574245791E-1
1.715424819E2,-4.062849581E-1,-3.226867020E-1,1.924903542E-1,5.533956192E-1
1.717428479E2,5.007976890E-1,8.377863169E-1,9.070753455E-1,1.332467606E0
1.719432139E2,-7.442950010E-1,-6.556431055E-1,4.336676002E-2,9.928361427E-1
1.721435801E2,-4.579949081E-1,-4.386636019E-1,-5.621492863E-1,8.474649913E-1
1.723439461E2,-4.813126624E-1,-5.414586663E-1,-1.148634911E0,1.358013816E0
1.725443111E2,-4.129756987E-1,1.568436027E-1,-2.881669402E-1,5.274362794E-1
1.727446771E2,-3.021727204E-1,-7.155216485E-2,-2.406280115E-2,3.114596020E-1
1.729450431E2,7.753024697E-1,2.249500751E-1,-3.331114352E-2,8.079641627E-1
1.731454092E2,1.004180685E-1,5.523101091E-1,9.067550898E-1,1.066459112E0
1.733457752E2,-1.054625034E0,-9.248534441E-1,-1.207381964E0,1.850772558E0
1.735461402E2,1.349434137E0,1.099474549E0,9.876379967E-1,2.001310967E0
1.737465062E2,-2.352938056E-1,-8.682177961E-2,-6.915812939E-2,2.601615714E-1
1.739468722E2,1.978145391E-1,2.559358999E-2,4.682648480E-1,5.089770050E-1
1.741472374E2,-1.128423452E0,-1.079971045E-1,7.438109070E-2,1.136017345E0
1.743476034E2,-9.715662152E-2,-1.536538005E-1,2.796278000E-1,3.335275192E-1
1.745479684E2,4.703902006E-1,-4.594613910E-1,-5.527057052E-1,8.589850448E-1
1.747483344E2,4.288888723E-2,-8.541707695E-2,3.755697235E-2,1.026940108E-1
1.749486994E2,-1.998357773E-1,-1.014522076E0,-1.220183298E-1,1.041190594E0
1.751490646E2,4.340421259E-1,-4.954795539E-1,-3.475185037E-1,7.447561117E-1
1.753494296E2,-2.179019451E-1,4.728565812E-1,4.407515749E-2,5.225105009E-1
1.755497946E2,3.729183227E-2,-3.845893741E-1,-6.401373148E-1,7.477134807E-1
1.757501606E2,7.532288432E-1,8.453714252E-1,5.580955148E-1,1.262330044E0
1.759505256E2,7.263894379E-2,-5.037426949E-2,-1.313538700E-1,1.583282109E-1
1.761508907E2,7.457907796E-1,-7.878538966E-1,4.694209993E-1,1.182063333E0
1.763512557E2,-8.513485193E-1,4.660536945E-1,3.100804687E-1,1.018896582E0
1.765516217E2,-2.732122838E-1,-1.711346358E-1,1.072385311E-1,3.397530253E-1
1.767519867E2,-3.678217828E-1,2.759030461E-1,-7.135521173E-1,8.488651123E-1
1.769523517E2,-3.009917438E-1,1.334866583E-1,-2.791936696E-1,4.316987641E-1
1.771527174E2,-7.401621342E-2,-2.581916451E-1,2.780368668E-4,2.685915166E-1
1.773530824E2,1.291224808E-1,-6.870525479E-1,-1.063675404E0,1.272839025E0
1.775534474E2,1.796446145E-1,4.025448859E-1,5.546136498E-1,7.084566841E-1
1.777538124E2,-5.977260470E-1,8.802875876E-2,-4.158142209E-1,7.334350387E-1
1.779541774E2,1.236895204E0,1.076617122E0,5.774492025E-1,1.738522865E0
1.781545421E2,4.342087805E-1,-7.743410021E-2,3.564465940E-1,5.670868358E-1
1.783549071E2,-1.841808408E-1,-4.988865554E-1,-1.151893139E-1,5.441313769E-1
1.785552711E2,-5.333827138E-1,-2.775717061E-3,8.863992095E-1,1.034508764E0
1.787556361E2,-4.314535856E-2,-6.532218307E-2,4.728373140E-2,9.145633287E-2
1.789560011E2,1.184283614E0,-5.132915974E-1,3.027358055E-1,1.325762011E0
1.791563665E2,-5.050286055E-1,7.067026198E-2,-6.366346478E-1,8.156910280E-1
1.793567305E2,-9.575728178E-1,-3.700445294E-1,-4.138613343E-1,1.106869396E0
1.795570955E2,-2.350656092E-1,-2.151130140E-1,-8.129857779E-1,8.731983305E-1
1.797574605E2,-7.695747912E-2,-8.349600434E-2,2.850549817E-1,3.068393373E-1
1.799578245E2,-6.076285616E-2,9.727619886E-1,-1.979190558E-1,9.945501314E-1
1.801581889E2,1.503499866E0,7.489113212E-1,4.589490294E-1,1.741267993E0
1.803585529E2,8.796374500E-2,-2.752332091E-1,2.729161382E-1,3.974596311E-1
1.805589179E2,2.475505322E-1,1.793490797E-1,3.030536771E-1,4.304519597E-1
1.807592819E2,-4.373320341E-1,3.641929626E-1,8.846644163E-1,1.051915848E0
1.809596469E2,-3.554794192E-2,-3.583208844E-2,1.615281999E-1,1.692304763E-1
1.811600108E2,5.068842322E-2,-4.186926484E-1,-7.913306355E-2,4.291094171E-1
1.813603758E2,-6.655268669E-1,-6.152078509E-1,-1.142010689E0,1.457942085E0
1.815607398E2,-6.029496193E-1,-5.896284580E-1,-1.717310697E-1,8.606401816E-1
1.817611037E2,7.944101840E-2,-3.410944045E-1,-6.903494596E-1,7.741050604E-1
1.819614678E2,1.605032235E-1,2.093038522E-2,5.077076554E-1,5.328850056E-1
1.821618330E2,9.649495035E-2,4.027448595E-1,1.156767458E-1,4.299951241E-1
1.823621970E2,1.302260518E0,4.709095061E-1,5.593079329E-1,1.493473664E0
1.825625610E2,7.931450754E-2,-3.763153553E-1,-1.639258415E-1,4.180618605E-1
1.827629250E2,2.603401840E-1,3.491250426E-2,2.442992032E-1,3.587171518E-1
1.829632890E2,-2.498986125E-1,5.094253421E-1,9.983662963E-1,1.148346096E0
1.831636531E2,-1.918472797E-1,-1.876493394E-1,5.604766011E-1,6.214110344E-1
1.833640171E2,-4.388712347E-1,-2.829965055E-1,-1.560000777E-1,5.450055110E-1
1.835643811E2,-6.276527047E-1,-2.676620185E-1,-7.423662543E-1,1.008314698E0
1.837647451E2,-9.522325397E-1,-5.763624907E-1,1.910861209E-2,1.113241065E0
1.839651091E2,-1.278306693E-1,-1.221799329E-1,2.046100050E-2,1.780091811E-1
1.841654728E2,-3.868949711E-1,2.971467674E-1,2.109641731E-1,5.314976974E-1
1.843658368E2,-5.400146842E-1,3.934358358E-1,1.511152461E-2,6.683082928E-1
1.845662008E2,1.147424340E0,1.042401314E0,6.383892894E-1,1.676521399E0
1.847665638E2,2.981990874E-1,-2.119147480E-1,1.259485725E-2,3.660453340E-1
1.849669278E2,2.069146335E-1,9.307745844E-3,-4.181905687E-1,4.666729598E-1
1.851672916E2,-5.844721794E-1,-2.709878385E-1,8.890910745E-1,1.097964059E0
1.853676546E2,-1.360920072E-1,2.203239650E-1,3.266444206E-1,4.168456087E-1
1.855680186E2,-4.126231372E-2,-8.020959496E-1,-6.167969108E-1,1.012669206E0
1.857683826E2,-1.837091595E-1,4.691433907E-1,-1.066398621E-1,5.149918800E-1
1.859687456E2,-3.710773885E-1,-2.887320891E-2,-1.647504270E-1,4.070316863E-1
1.861691100E2,-7.901148498E-2,-3.901222050E-1,-2.072332948E-1,4.487580507E-1
1.863694730E2,1.818619668E-1,4.422438443E-1,1.599464566E-1,5.042184663E-1
1.865698370E2,-2.656193972E-1,3.718155026E-1,-1.159553751E-1,4.714298264E-1
1.867702000E2,1.686486363E0,9.739196897E-1,5.654450655E-1,2.027926019E0
1.869705640E2,2.203322947E-1,-3.764697909E-1,3.495933115E-2,4.376048199E-1
1.871709275E2,-1.148903146E-1,2.165793926E-1,3.847978413E-1,4.562628588E-1
1.873712905E2,3.917061090E-1,8.474490643E-1,1.159805775E0,1.488876431E0
1.875716545E2,-2.602634132E-1,3.154538870E-1,8.927151561E-2,4.185900173E-1
1.877720175E2,-6.463642120E-1,-1.085052267E-1,-1.360954791E-1,6.693893174E-1
1.879723805E2,-8.324871063E-1,-7.448324561E-1,-1.375745177E0,1.772141350E0
1.881727426E2,-1.058950901E0,-6.739438772E-1,-3.624717891E-2,1.255743293E0
1.883731056E2,9.518198967E-1,-9.199367166E-1,-3.867855072E-1,1.379074946E0
1.885734696E2,3.937782943E-1,4.626972377E-1,7.413640618E-1,9.585253002E-1
1.887738326E2,-8.845812678E-1,1.031330705E0,-6.647602320E-1,1.512624609E0
1.889741956E2,7.006607652E-1,6.640509367E-1,5.671961308E-1,1.119643070E0
1.891745588E2,1.877736747E-1,-2.353818268E-1,-1.190738082E-1,3.237933432E-1
1.893749218E2,3.470505774E-1,4.740391076E-1,7.353397012E-1,9.412128638E-1
1.895752848E2,-1.190726757E0,-7.825674415E-1,4.019361734E-1,1.480471107E0
1.897756478E2,-1.985698640E-1,7.534071803E-2,1.590644717E-1,2.653445324E-1
1.899760108E2,2.817146480E-1,-2.467308044E-1,-4.326213002E-1,5.721891489E-1
1.901763732E2,-4.331804812E-1,-1.866592467E-1,-8.710337877E-1,9.905487686E-1
1.903767362E2,7.652435452E-2,-5.658971667E-1,9.449884295E-3,5.711259760E-1
1.905770992E2,8.932412267E-1,-1.325344890E-1,2.021539956E-2,9.032463353E-1
1.907774622E2,-7.668532431E-2,5.138720870E-1,5.921673179E-1,7.877863245E-1
1.909778252E2,3.195112944E-2,-4.091253877E-1,-2.345452607E-1,4.726689505E-1
1.911781870E2,6.449788213E-1,5.918545723E-1,2.542493343E-1,9.115548468E-1
1.913785500E2,-8.042450547E-1,-3.151143491E-1,-4.154633284E-1,9.584972291E-1
1.915789130E2,3.921270967E-1,1.047572568E-1,5.878398418E-1,7.143482501E-1
1.917792750E2,-8.044978380E-1,-3.554123640E-1,3.906219304E-1,9.623513975E-1
1.919796380E2,-6.665399075E-1,-2.426078171E-1,-2.373101860E-1,7.479639868E-1
1.921799996E2,-8.290220797E-2,-5.008365512E-1,-1.166807652E0,1.272458299E0
1.923803626E2,4.673314393E-1,3.665651381E-1,-5.934317783E-2,5.969005674E-1
1.925807246E2,5.401142240E-1,-1.321248889E0,-1.223105490E-1,1.432613651E0
1.927810876E2,1.451250911E0,8.307998776E-1,2.055176049E-1,1.684813084E0
1.929814496E2,3.451398313E-1,4.731991291E-1,8.962228894E-1,1.070632704E0
1.931818132E2,-6.278577447E-1,9.427568913E-1,-2.736558020E-1,1.165282542E0
1.933821752E2,-6.288289279E-2,1.802955717E-1,-8.431346714E-2,2.087331122E-1
1.935825372E2,-8.328061104E-1,-2.439638376E-1,-2.709912658E-1,9.091318044E-1
1.937829002E2,5.940212682E-2,3.101616502E-1,3.691748977E-1,4.858178331E-1
1.939832622E2,-3.637506366E-1,-6.040590405E-1,4.448587000E-1,8.337272414E-1
1.941836240E2,-7.375493050E-1,1.788503528E-1,-3.809687868E-2,7.598801209E-1
1.943839860E2,8.074529767E-1,-1.143127799E0,-4.943675101E-1,1.484291316E0
1.945843480E2,-1.629734933E-1,-6.166679040E-2,-8.646091819E-1,8.819933049E-1
1.947847110E2,-4.324060678E-1,-5.942648053E-1,-2.757545412E-1,7.849625681E-1
1.949850730E2,1.238287687E0,1.086888909E0,9.622271657E-1,1.908026472E0
1.951854351E2,-1.206105873E-1,5.107994080E-1,1.248103008E-1,5.394817514E-1
1.953857971E2,3.745810315E-2,-1.775527745E-1,4.058774933E-2,1.859447838E-1
1.955861591E2,5.936926007E-1,2.330249846E-1,1.490004808E-1,6.549600682E-1
1.957865211E2,-8.047150373E-1,-4.415107965E-1,-8.703543246E-2,9.219941655E-1
1.959868831E2,6.301024556E-2,-1.161645819E-2,1.996275485E-1,2.096577956E-1
1.961872448E2,-7.079896331E-1,-7.288504839E-1,-1.565989107E-1,1.028102897E0
1.963876068E2,-5.135787725E-1,-2.280631810E-1,3.416237235E-2,5.629769425E-1
1.965879678E2,-6.209683418E-1,-1.110701084E0,-1.294814348E0,1.815434597E0
1.967883298E2,-1.103118211E-1,4.676015079E-1,-6.690550447E-1,8.236835077E-1
1.969886917E2,-1.222002745E0,9.006670117E-1,1.183390617E-1,1.522660799E0
1.971890541E2,1.188789010E0,-4.343905449E-1,2.225220203E-1,1.285079961E0
1.973894161E2,-1.977485977E-2,5.984702706E-1,8.646860719E-1,1.051779308E0
1.975897771E2,1.836332381E-1,-2.001546025E-1,-8.100768924E-1,8.544048236E-1
1.977901391E2,4.095019102E-1,9.233568311E-1,2.038900107E-1,1.030461444E0
1.979905001E2,-2.797187865E-1,-8.360181749E-2,-1.465843171E-1,3.266784741E-1
1.981908615E2,4.175491929E-1,4.773615003E-1,6.157025695E-1,8.839179739E-1
1.983912235E2,-1.001392841E0,-2.636099979E-2,1.295512676E0,1.637631100E0
1.985915845E2,-8.540999889E-1,3.321036398E-1,3.092493713E-1,9.671684405E-1
1.987919465E2,-3.429862261E-1,4.102477431E-2,-4.299839437E-1,5.515512444E-1
1.989923075E2,-1.160791144E-1,8.102427423E-2,-8.637530208E-1,8.752762848E-1
1.991926697E2,-4.997434616E-1,-7.117538452E-1,-5.515750051E-1,1.029840789E0
1.993930307E2,4.023117125E-1,-9.365009069E-1,-2.701299489E-1,1.054447178E0
1.995933917E2,-1.990897655E-1,8.115345240E-1,5.355049372E-1,9.924669043E-1
1.997937537E2,2.909744084E-1,-3.908497095E-1,-2.437164783E-1,5.448186153E-1
1.999941147E2,1.264686346E0,7.819215655E-1,9.212703705E-1,1.749163224E0
2.001944762E2,-2.619480193E-1,-2.802281082E-1,-1.039134935E-1,3.974198932E-1
2.003948382E2,1.844030768E-1,5.189487338E-1,4.932977855E-1,7.393612028E-1
2.005951992E2,-2.354918122E-1,-3.023790419E-1,1.212671876E0,1.271795014E0
2.007955602E2,-1.180488542E-1,2.514486015E-1,2.162346840E-1,3.520218313E-1
2.009959212E2,-1.024553925E-1,-3.419807851E-1,-6.121447682E-1,7.086389646E-1
2.011962826E2,-2.709128559E-1,-1.561431885E-1,-7.835953832E-1,8.436801499E-1
2.013966436E2,-9.549683928E-1,-5.995769501E-1,-1.058362007E0,1.546475764E0
2.015970056E2,4.523777366E-1,-4.966014326E-1,-1.060352921E-1,6.800750566E-1
2.017973666E2,1.835208572E-2,6.913492084E-1,4.589790106E-1,8.300375046E-1
2.019977276E2,-1.136674285E-1,-7.962080240E-1,-4.985269010E-1,9.462539685E-1
2.021980873E2,1.310623407E0,1.886792660E0,1.411057949E0,2.696072104E0
2.023984483E2,5.629839301E-1,-3.368947506E-1,6.374825537E-2,6.591758632E-1
2.025988083E2,1.002361402E-1,4.291451871E-1,4.736120105E-1,6.469321540E-1
2.027991693E2,-8.737596869E-1,1.470006406E-1,7.208977938E-1,1.142260394E0
2.029995303E2,-5.372652411E-1,1.908438355E-1,2.617675662E-1,6.273735471E-1
2.031998922E2,-2.101312578E-2,-1.228042603E0,-1.106212974E0,1.652948072E0
2.034002532E2,-1.822428405E-2,2.002546489E-1,-5.476059318E-1,5.833577851E-1
2.036006142E2,5.134648681E-1,-1.091835976E0,3.799787462E-1,1.264964749E0
2.038009742E2,1.110048413E0,-2.942999899E-1,-9.689944563E-4,1.148399278E0
2.040013352E2,-3.755957484E-1,5.883103013E-1,5.212446451E-1,8.711355560E-1
2.042016953E2,3.906719387E-2,6.748164892E-1,7.991473675E-1,1.046680493E0
2.044020553E2,6.276032925E-1,1.850039065E-1,-2.204543501E-1,6.904436680E-1
2.046024163E2,-8.682205081E-1,-2.969014347E-1,-6.288213730E-1,1.112372973E0
2.048027773E2,1.395724565E-1,2.068687603E-2,4.474780858E-1,4.691961793E-1
2.050031373E2,-5.356125236E-1,-6.414074302E-1,-3.380874917E-2,8.363177018E-1
2.052034993E2,4.841025453E-3,5.985415354E-2,-1.600661129E-1,1.709593979E-1
2.054038593E2,-2.750787735E-1,-1.406825542E0,-7.205333114E-1,1.604367380E0
2.056042203E2,-7.911775112E-1,-2.201252282E-1,-1.324351907E0,1.558308360E0
2.058045803E2,-3.181636333E-2,-9.035089016E-1,9.157253802E-2,9.086947485E-1
2.060049403E2,1.039856672E0,5.333831310E-1,5.704795718E-1,1.300479298E0
2.062053015E2,-2.267682552E-1,4.421162009E-1,5.233541131E-1,7.216578860E-1
2.064056615E2,3.753175735E-1,-1.428460002E0,-8.545320034E-1,1.706337072E0
2.066060215E2,1.052107334E0,8.155491948E-1,9.428226352E-1,1.631246411E0
2.068063825E2,-3.546400964E-1,-6.598873138E-1,-3.608519137E-1,8.315256873E-1
2.070067425E2,3.624306619E-1,5.789673328E-1,6.225140095E-1,9.241660290E-1
2.072071021E2,-7.139480859E-2,-4.269350767E-1,1.058158875E0,1.143272051E0
2.074074621E2,-7.953044772E-1,1.249340102E-1,-1.956894994E-1,8.284999086E-1
2.076078221E2,3.992023766E-1,-2.316179514E0,-5.400689840E-1,2.411581345E0
2.078081821E2,-9.411388636E-1,-4.707542807E-2,-1.101916552E0,1.449889149E0
2.080085421E2,-8.051264882E-1,-6.814924479E-1,-6.504200101E-1,1.239236381E0
2.082089018E2,8.658019304E-1,-2.990570664E-1,-2.186154127E-1,9.417222576E-1
2.084092618E2,8.900738508E-2,9.719269872E-1,5.067220926E-1,1.099696168E0
2.086096218E2,-7.335754037E-1,1.401118338E-1,-4.164617360E-1,8.551050090E-1
2.088099818E2,7.504708171E-1,2.290369943E-2,2.496974766E-1,7.912520816E-1
2.090103417E2,-3.896645308E-1,-1.953198612E-1,-6.948347092E-1,8.202338494E-1
2.092107025E2,5.979551934E-3,3.381324112E-1,3.341618478E-1,4.754297247E-1
2.094110625E2,6.278867126E-1,-1.774765253E-1,1.081110001E0,1.262750361E0
2.096114225E2,-6.674540043E-1,2.096815966E-3,-1.545038968E-1,6.851063411E-1
2.098117825E2,1.746271551E-1,-3.173784353E-3,-2.177495360E-1,2.791407828E-1
2.100121415E2,-1.421466321E-1,1.269142628E-1,-7.051578164E-1,7.304522169E-1
2.102125012E2,-6.795662045E-1,-8.678073883E-1,-6.651020646E-1,1.287346358E0
2.104128613E2,1.282096058E-1,-7.134665251E-1,-4.398692548E-1,8.479134076E-1
2.106132213E2,-2.900232673E-1,3.185596764E-1,5.651265979E-1,7.106066666E-1
2.108135803E2,2.798612230E-3,-4.032785445E-2,-5.434788298E-3,4.078854005E-2
2.110139403E2,1.256228209E0,6.432604194E-1,6.385700107E-1,1.549085194E0
2.112142988E2,-1.614516973E-1,1.838069782E-2,-5.814101696E-1,6.036905548E-1
2.114146588E2,2.617677450E-1,6.117678285E-1,2.804692984E-1,7.221116642E-1
2.116150178E2,1.038831994E-1,1.026402116E-1,7.242869735E-1,7.388628777E-1
2.118153777E2,-2.213906348E-1,1.829778701E-1,2.845757604E-1,4.043242232E-1
2.120157368E2,-3.799203634E-1,-6.198427081E-1,-8.212009072E-2,7.316339075E-1
2.122160970E2,-2.373426259E-1,1.917764246E-1,-9.758267999E-1,1.022422448E0
2.124164560E2,-3.722271919E-1,-5.941607952E-1,-2.647937238E-1,7.494637077E-1
2.126168160E2,-4.736849666E-2,-4.090983272E-1,8.115520701E-3,4.119114922E-1
2.128171750E2,-2.431662977E-1,8.673522621E-2,1.231106743E-1,2.860228766E-1
2.130175340E2,-2.512691915E-1,-7.449857146E-2,2.700392343E-2,2.634681302E-1
2.132178928E2,1.332636237E0,4.369261861E-1,4.113258123E-1,1.461510437E0
2.134182528E2,6.933376938E-2,-1.274868287E-2,-5.008025840E-2,8.647388492E-2
2.136186118E2,2.574086189E-1,3.117249608E-1,4.374901950E-1,5.956755149E-1
2.138189708E2,1.236799598E0,5.544692874E-1,8.294227123E-1,1.589041054E0
2.140193297E2,-4.698618352E-1,8.256940544E-2,2.920623422E-1,5.593641592E-1
2.142196895E2,-1.774298400E-1,-1.847277731E-1,-2.519154251E-1,3.592590704E-1
2.144200485E2,7.459265590E-1,5.648725629E-1,1.332021505E-1,9.451085951E-1
2.146204075E2,-6.761657596E-1,-3.890967667E-1,-8.960027993E-2,7.852545055E-1
2.148207665E2,7.590111345E-2,1.403565854E-1,5.064693689E-1,5.310105194E-1
2.150211255E2,-2.506807446E-1,-1.271756887E-1,4.133198261E-1,4.998477470E-1
2.152214836E2,-4.557198882E-1,-8.023325354E-2,-3.333704546E-2,4.639281734E-1
2.154218426E2,1.080529332E0,-8.305254579E-1,-2.741430998E-1,1.390133308E0
2.156222016E2,-3.645089567E-1,-2.480959147E-1,-4.472193718E-1,6.280314713E-1
2.158225606E2,2.672347240E-3,1.330362260E-1,8.966022730E-2,1.604516601E-1
2.160229196E2,1.310183048E0,6.472709179E-1,1.008404970E0,1.775505518E0
2.162232787E2,-6.538875699E-1,3.919445574E-1,4.341227412E-1,8.772981504E-1
2.164236377E2,7.889785618E-2,4.013002515E-1,-3.651779592E-1,5.482898006E-1
2.166239957E2,4.231573343E-1,-4.376215488E-2,3.882669508E-1,5.759587493E-1
2.168243547E2,-8.359767199E-1,-3.628104031E-1,-4.250866473E-1,1.005578004E0
2.170247137E2,2.503366768E-1,-4.430627823E-1,4.247094095E-1,6.628356986E-1
2.172250723E2,-7.944160104E-1,-4.770224392E-1,9.632509202E-2,9.316253155E-1
2.174254313E2,-5.380657315E-2,-2.352521867E-1,-3.425775170E-1,4.190442624E-1
2.176257903E2,1.913602501E-1,-4.135758877E-1,-6.647859216E-1,8.059801993E-1
2.178261483E2,-2.540712953E-1,2.039091587E-1,-5.736253858E-1,6.596796581E-1
2.180265073E2,-1.961355358E-1,3.249462843E-1,-9.287884831E-2,3.907501971E-1
2.182268652E2,7.965234518E-1,4.725133255E-2,7.686676979E-1,1.107940579E0
2.184272242E2,-8.971532434E-2,6.387485862E-1,6.304071546E-1,9.019211586E-1
2.186275822E2,-1.796028763E-1,2.948116064E-1,-4.414021224E-2,3.480221757E-1
2.188279412E2,1.049234152E0,4.185044765E-1,-2.322995663E-2,1.129857484E0
2.190282992E2,-5.678582191E-1,-3.913559616E-1,-6.650754064E-2,6.928533024E-1
2.192286574E2,4.456249177E-1,1.408216953E-1,3.852325976E-1,6.056537554E-1
2.194290164E2,-1.195704639E-1,1.074732661E0,1.425791383E0,1.789477146E0
2.196293744E2,-4.179311991E-1,-2.435800880E-1,1.401398033E-1,5.036237791E-1
2.198297324E2,3.611992300E-2,-3.533503115E-1,-1.383685321E-1,3.811914770E-1
2.200300904E2,-7.610819340E-1,-3.464996070E-2,-5.413046479E-1,9.345892423E-1
2.202304486E2,-1.408522129E-1,-5.974196196E-1,-2.639966309E-1,6.681644774E-1
2.204308066E2,-3.240373433E-1,-5.515118241E-1,-3.387804627E-1,7.238354053E-1
2.206311646E2,9.768701345E-2,3.679436147E-1,8.794781566E-2,3.907173844E-1
2.208315226E2,1.041635126E-1,-5.291129947E-1,-4.023229182E-1,6.728107676E-1
2.210318806E2,1.137483954E0,4.071941078E-1,1.880935878E-1,1.222724820E0
2.212322390E2,-2.946177721E-1,4.532682300E-1,-1.309920102E-1,5.562469116E-1
2.214325970E2,1.650409698E-1,-7.136215270E-2,2.666266635E-2,1.817745206E-1
2.216329550E2,3.750225604E-1,1.134166598E0,1.464965224E0,1.890264241E0
2.218333130E2,-5.742312595E-2,2.033619285E-1,3.790132403E-1,4.339406938E-1
2.220336710E2,2.635025382E-1,3.313023448E-1,-1.936859637E-1,4.655202293E-1
2.222340293E2,-2.441394329E-1,8.617530018E-2,-8.337996602E-1,8.730705117E-1
2.224343873E2,-6.340076327E-1,-4.369499683E-1,-2.795795500E-1,8.191798813E-1
2.226347453E2,9.662420154E-1,2.685341835E-1,7.173942327E-1,1.233040439E0
2.228351033E2,-8.124038577E-1,-8.631412983E-1,1.590376049E-1,1.195953966E0
2.230354603E2,-7.559138350E-3,2.657833099E-1,-6.459514052E-2,2.736246345E-1
2.232358178E2,-7.296435833E-1,-6.933837533E-1,-7.512245178E-1,1.255985296E0
2.234361758E2,-4.459387958E-1,-2.363966256E-1,-9.794909954E-1,1.101883562E0
2.236365338E2,-2.052061707E-1,-3.148478568E-1,2.558694966E-2,3.766874532E-1
2.238368908E2,1.237873435E0,4.165329970E-3,3.398439884E-1,1.283682954E0
2.240372488E2,1.715856418E-2,5.553402901E-1,6.549202800E-1,8.588468008E-1
2.242376067E2,-1.062636971E-1,-6.082717776E-1,-2.807427943E-1,6.783089601E-1
2.244379637E2,9.029013515E-1,9.434962273E-1,5.830243230E-1,1.430151510E0
2.246383217E2,-5.152041316E-1,-1.772469729E-1,-3.598053157E-1,6.529254566E-1
2.248386797E2,6.910068989E-1,6.012985110E-1,6.081467271E-1,1.099496646E0
2.250390367E2,-7.685535550E-1,1.802955866E-1,1.196519494E0,1.433471299E0
2.252393955E2,-3.133561313E-1,2.745915055E-1,2.863903046E-1,5.055808209E-1
2.254397525E2,2.184909135E-1,-1.080688760E-1,-2.521003783E-1,3.506732981E-1
2.256401095E2,-4.927508235E-1,-6.025388138E-4,-8.152255416E-1,9.525735776E-1
2.258404675E2,-8.989700079E-1,-6.370799541E-1,-8.284103274E-1,1.378507023E0
2.260408245E2,1.915968955E-1,-6.436454058E-1,-4.647961855E-1,8.167155397E-1
2.262411818E2,3.585898578E-1,5.524637699E-1,5.588415861E-1,8.637747516E-1
2.264415388E2,1.109189034E0,-7.982320189E-1,-2.314338982E-1,1.386014544E0
2.266418958E2,6.614010930E-1,5.228356123E-1,-1.424707919E-1,8.550476068E-1
2.268422528E2,-3.375260234E-1,-2.688449919E-1,-6.389217377E-1,7.709879591E-1
2.270426108E2,-4.757216275E-1,7.954899669E-1,-2.132634521E-1,9.511028621E-1
2.272429680E2,1.316741854E-1,2.628512383E-1,1.468436480E0,1.497576228E0
2.274433250E2,-4.409890771E-1,2.954271138E-1,3.663800657E-1,6.449673621E-1
2.276436820E2,1.119182706E0,-3.615156114E-1,-1.033467531E0,1.565668740E0
2.278440390E2,-1.039522767E0,-4.516659677E-1,-7.703459859E-1,1.370416969E0
2.280443960E2,-9.405049682E-1,-2.932756841E-1,-5.301747322E-1,1.118769623E0
2.282447531E2,1.164439395E-1,-3.150176108E-1,-1.176859736E-1,3.558725538E-1
2.284451101E2,-9.382274747E-2,8.379528672E-2,4.736255109E-1,4.900464086E-1
2.286454671E2,7.031226903E-2,-4.882709682E-1,-5.850256681E-1,7.652498846E-1
2.288458241E2,1.842754722E0,4.707385600E-1,1.397696584E-1,1.907059337E0
2.290461811E2,-7.375144958E-2,-1.135626249E-2,1.824016422E-1,1.970751128E-1
2.292465383E2,-5.877636671E-1,-6.217681766E-1,7.047008723E-2,8.585032481E-1
2.294468953E2,1.280015230E0,1.238115311E0,1.904589176E0,2.607456316E0
2.296472523E2,1.265685260E-2,8.476793170E-1,8.020052314E-1,1.167018771E0
2.298476093E2,2.775290906E-1,7.295385599E-1,2.682599425E-1,8.253558647E-1
2.300479653E2,-4.634963572E-1,-3.629835844E-1,-6.948915124E-1,9.107470393E-1
2.302483225E2,-1.368957996E0,-1.453789234E0,-7.725442052E-1,2.141115056E0
2.304486795E2,-4.154772758E-1,-4.756146967E-1,-4.016098678E-1,7.484124481E-1
2.306490365E2,9.484053403E-2,3.784734905E-1,6.885196567E-1,7.913887967E-1
2.308493925E2,-4.193086624E-1,1.032106161E0,2.620979846E-1,1.144446694E0
2.310497495E2,1.095836043E0,-3.143343925E-1,-7.474575043E-1,1.363215121E0
2.312501065E2,1.470455229E-1,6.276321411E-1,-4.708983004E-1,7.983042651E-1
2.314504625E2,3.605752289E-1,1.733589917E-1,9.259856343E-1,1.008720591E0
2.316508195E2,-1.781746745E-1,7.062298656E-1,9.184182286E-1,1.172176983E0
2.318511755E2,-2.251254171E-1,-1.485965252E-1,3.287926018E-1,4.252845586E-1
2.320515325E2,5.137088895E-1,2.718124390E-1,-2.048697174E-1,6.162389360E-1
2.322518879E2,-5.416384339E-1,-3.662775457E-1,-1.506627679E0,1.642394105E0
2.324522449E2,-4.856812656E-1,-6.563002616E-2,-1.766549945E-1,5.209612070E-1
2.326526009E2,3.209609166E-2,1.254763454E-1,1.424349695E-1,1.925154355E-1
2.328529569E2,1.239398122E-1,-1.459900290E-1,4.747276008E-1,5.118988773E-1
2.330533139E2,-4.035596550E-1,7.556789517E-1,-4.792988598E-1,9.816508902E-1
2.332536694E2,1.168524861E0,1.794244051E-1,-1.056044996E-1,1.186927032E0
2.334540254E2,4.621951282E-2,-8.010013402E-2,-3.119749129E-1,3.253930256E-1
2.336543814E2,-6.296444535E-1,7.929687202E-2,3.908391297E-1,7.453156090E-1
2.338547384E2,-3.724382818E-1,1.214224935E0,1.133415699E0,1.702258386E0
2.340550944E2,-5.536091924E-1,1.479009748E0,3.545082510E-1,1.618526821E0
2.342554509E2,1.836273260E-2,4.686451256E-1,1.943494976E-1,5.076782159E-1
2.344558069E2,-1.238521487E-1,-4.357532263E-1,-7.637988925E-1,8.880365855E-1
2.346561629E2,-5.075747967E-1,-1.133623004E0,-8.107062578E-1,1.483232256E0
2.348565189E2,1.171361879E-1,-1.288645864E0,-1.521261096E0,1.997139046E0
2.350568749E2,6.181050837E-2,-1.516523659E-1,1.325255781E-1,2.106703774E-1
2.352572317E2,1.148464754E-1,-2.241904289E-1,-4.087563753E-1,4.801383505E-1
2.354575877E2,1.575400233E0,1.103027940E0,1.187373042E0,2.260179478E0
2.356579437E2,1.417600363E-1,5.049631000E-1,9.267829359E-2,5.326095252E-1
2.358582997E2,6.423427463E-1,3.612073362E-1,8.224182725E-1,1.104285633E0
2.360586557E2,-8.539495468E-1,-3.693654835E-1,1.019159794E0,1.379980933E0
2.362590118E2,5.342556238E-1,9.511321038E-2,-1.093003005E-1,5.535541076E-1
2.364593678E2,-4.134229422E-1,-4.803348184E-1,-3.614494577E-2,6.347806896E-1
2.366597238E2,-2.421005517E-1,3.673365116E-1,-7.849701643E-1,8.998482921E-1
2.368600788E2,-3.443433344E-1,-1.602448821E-1,-2.695886791E-1,4.657561702E-1
2.370604348E2,4.490650892E-1,-1.596168280E0,-1.211077571E0,2.053319633E0
2.372607903E2,-2.084577680E-1,2.832062542E-1,8.731201291E-1,9.412752962E-1
2.374611463E2,6.530542970E-1,-7.230022550E-1,4.339987338E-1,1.066567896E0
2.376615013E2,2.490666360E-1,2.174197882E-1,-5.590629578E-1,6.495051533E-1
2.378618573E2,2.097408772E-1,-4.887246192E-1,-4.225082397E-1,6.792320675E-1
2.380622133E2,-2.362855226E-1,3.683873117E-1,6.144562960E-1,7.543849145E-1
2.382625677E2,3.832296133E-1,5.251368284E-1,1.591372967E0,1.719040879E0
2.384629237E2,-6.566534638E-1,9.312669635E-1,6.957069635E-1,1.335088053E0
2.386632797E2,-8.793866634E-1,-9.210835695E-1,-7.584072948E-1,1.482193466E0
2.388636347E2,-1.047761291E-1,-1.122070402E-1,-1.933080077E0,1.939166584E0
2.390639907E2,-2.908371091E-1,1.144244075E0,2.378624678E-1,1.204350149E0
2.392643460E2,-1.150011197E-1,-1.755196787E-2,2.811200023E-1,3.042396831E-1
2.394647010E2,-5.228431895E-2,8.180531859E-1,6.969437003E-1,1.075953153E0
2.396650570E2,-1.257331133E0,-1.232287288E0,-8.279688358E-1,1.945493750E0
2.398654120E2,6.967720389E-1,1.288763404E0,4.104292691E-1,1.521464614E0
2.400657680E2,-5.729741454E-1,-3.827632368E-1,-3.982146680E-1,7.958529943E-1
2.402661233E2,4.147128165E-1,4.022169113E-1,1.224883795E0,1.354291503E0
2.404664782E2,-5.936640501E-1,-3.484796733E-2,6.698787957E-2,5.984469577E-1
2.406668343E2,-6.761091948E-2,-5.521940589E-1,2.310837060E-1,6.024028505E-1
2.408671893E2,5.321833491E-1,-9.448142648E-1,-1.492742419E0,1.845040119E0
2.410675443E2,-5.309375376E-2,-1.728275046E-2,-6.070492864E-1,6.096117422E-1
2.412679000E2,-2.095281035E-1,-1.072471887E-1,2.753973939E-3,2.353966227E-1
2.414682550E2,1.056958675E0,1.244518042E0,1.657377958E0,2.326561517E0
2.416686100E2,-4.517855942E-1,6.341786981E-1,5.881084204E-1,9.757890952E-1
2.418689650E2,7.559989095E-1,1.102277637E0,3.390380442E-1,1.378947836E0
2.420693200E2,-3.043812513E-1,-2.795252502E-1,-7.037824988E-1,8.161446669E-1
2.422696745E2,-4.804006219E-1,-5.893911123E-1,-5.321348906E-1,9.280809138E-1
2.424700295E2,5.811046809E-2,2.630062401E-1,6.319198012E-1,6.869292133E-1
2.426703845E2,-2.591465712E-1,-4.376552403E-1,1.821677089E-1,5.402630182E-1
2.428707395E2,-2.759585977E-1,-7.178759575E-1,-3.655605316E-1,8.515477322E-1
2.430710945E2,1.343874574E0,-6.337302923E-1,-2.647329569E-1,1.509203926E0
2.432714498E2,-2.621298432E-1,-4.619910717E-1,-7.171853185E-1,8.924699357E-1
2.434718048E2,-2.127959281E-1,6.141069159E-2,2.919835150E-1,3.664802220E-1
2.436721598E2,1.237471700E0,9.680399299E-2,5.438666940E-1,1.355174602E0
2.438725148E2,8.454165459E-1,9.746407866E-1,1.088464856E0,1.688019414E0
2.440728698E2,-6.279481649E-1,8.515246511E-1,-7.407851219E-1,1.291578773E0
2.442732255E2,-1.074804664E-1,-3.639833629E-1,-4.377133846E-1,5.793349171E-1
2.444735805E2,-8.232540488E-1,-4.967402518E-1,-5.380947590E-1,1.101836683E0
2.446739345E2,1.093204543E-1,6.295250654E-1,5.245975256E-1,8.267135741E-1
2.448742895E2,-2.401821613E-1,-2.374173999E-1,8.168531656E-1,8.839137891E-1
2.450746445E2,-6.631432772E-1,1.684366614E-1,-1.429729313E-1,6.989786649E-1
2.452749990E2,-1.362465788E-2,-9.064670205E-1,-1.590172887E0,1.830441996E0
2.454753530E2,2.323165387E-1,3.946034312E-1,-6.397240162E-1,7.867208266E-1
2.456757080E2,1.043770015E-1,-1.807846129E-1,6.395463347E-1,6.727534088E-1
2.458760630E2,1.383893847E0,1.095589638E0,1.547025323E0,2.347076093E0
2.460764170E2,-2.271177471E-1,5.153036714E-1,6.122401357E-1,8.318403263E-1
2.462767719E2,2.082442790E-1,3.575301915E-2,-1.217576265E0,1.235773410E0
2.464771259E2,6.114748120E-1,-1.740370989E-1,-8.036639094E-1,1.024727299E0
2.466774809E2,-1.227107644E0,-3.922380805E-1,-5.122592449E-1,1.386381411E0
2.468778349E2,2.857426107E-1,4.764722586E-1,7.443681955E-1,9.288480302E-1
2.470781899E2,-8.022394031E-2,-8.730744720E-1,3.367653489E-1,9.392048841E-1
2.472785437E2,-3.789151609E-1,-4.259465635E-1,5.025935173E-2,5.723051429E-1
2.474788977E2,-1.113470178E-2,-6.137413979E-1,-1.224212408E0,1.369488410E0
2.476792527E2,-1.982035190E-1,1.559096426E-1,-3.366086483E-1,4.205922416E-1
2.478796067E2,-4.360773563E-1,-4.833916128E-1,-1.292790752E-2,6.511513210E-1
2.480799607E2,4.475767910E-1,1.274267286E-1,4.248787165E-1,6.301463947E-1
2.482803159E2,3.116409183E-1,9.070695043E-1,8.596577048E-1,1.287985449E0
2.484806699E2,-2.668583691E-1,-6.474171877E-1,-3.881896138E-1,8.006582169E-1
2.486810239E2,1.114094257E0,2.387908548E-1,-6.575999260E-1,1.315547319E0
2.488813789E2,-4.699001908E-1,-4.005726874E-1,-5.323605239E-2,6.197570044E-1
2.490817329E2,-7.152748853E-2,8.827611059E-2,3.740404844E-1,3.909157675E-1
2.492820867E2,-8.718235046E-2,5.718409419E-1,2.016726017E0,2.098043530E0
2.494824407E2,-1.143169217E-2,5.425176620E-1,6.868651509E-1,8.753512625E-1
2.496827947E2,-6.626914740E-1,-9.269202352E-1,1.349452138E-1,1.147410704E0
2.498831487E2,-1.543815970E0,-9.775805473E-1,-1.985601306E0,2.698452153E0
2.500835027E2,-9.477896690E-1,-4.531237781E-1,-5.418562293E-1,1.182046779E0
2.502838571E2,1.166990623E-1,-8.654950261E-1,4.483409524E-1,9.816872827E-1
2.504842111E2,7.423946857E-1,1.321695566E0,4.940416217E-1,1.594398370E0
2.506845651E2,-7.013885379E-1,5.825687647E-1,-4.139016271E-1,1.001322527E0
2.508849191E2,1.485270739E0,4.096795619E-1,1.935795844E-1,1.552848855E0
2.510852731E2,-3.752158582E-1,-1.032587215E-1,-2.112862468E-1,4.428218399E-1
2.512856270E2,1.635264307E-1,3.028025627E-1,7.786049247E-1,8.512672402E-1
2.514859810E2,-6.175296903E-1,-6.098186374E-1,6.124911904E-1,1.062246274E0
2.516863350E2,-6.825248003E-1,-7.614143938E-2,-7.169812452E-3,6.867962056E-1
2.518866890E2,-2.100443244E-1,-8.105533719E-1,-5.859229565E-1,1.021969225E0
2.520870430E2,-1.013888955E0,1.583492458E-1,-1.326181293E0,1.676842902E0
2.522873960E2,-4.124065638E-1,-3.166290820E-1,1.681970954E-1,5.464644657E-1
2.524877500E2,4.207570851E-1,-1.642117053E-1,-6.554185599E-2,4.563964764E-1
2.526881040E2,5.178750306E-2,5.005143285E-1,8.417234421E-1,9.806604364E-1
2.528884580E2,9.588332772E-1,-8.537062407E-1,1.472109184E-2,1.283897313E0
2.530888110E2,1.488818765E0,1.232317805E0,5.179372430E-1,2.000861683E0
2.532891651E2,-8.373886347E-2,-1.978260428E-1,-2.959498763E-1,3.656961440E-1
2.534895191E2,6.185580418E-2,5.565227568E-2,1.562544107E-1,1.770275605E-1
2.536898721E2,6.595910788E-1,6.710905433E-1,1.599728823E0,1.855951296E0
2.538902261E2,-4.171343446E-1,4.768067896E-1,5.544464588E-1,8.418768626E-1
2.540905791E2,5.719908476E-1,5.747970566E-2,-2.627563775E-1,6.320746476E-1
2.542909336E2,6.220492721E-1,-3.805977702E-1,5.933911353E-2,7.316564016E-1
2.544912866E2,-9.262011051E-1,1.413921565E-1,-7.712956071E-1,1.213563819E0
2.546916406E2,7.963390350E-1,1.863070130E-1,5.227902532E-1,9.706574116E-1
2.548919936E2,-1.092457771E0,-8.160145879E-1,8.658556938E-1,1.615255358E0
2.550923476E2,-7.419838905E-1,6.194076538E-1,-5.126487017E-1,1.094081636E0
2.552927003E2,-5.244947076E-1,-3.998501897E-1,-8.779257536E-1,1.098056693E0
2.554930543E2,-7.005135417E-1,-3.816265762E-1,-1.040689230E0,1.311255940E0
2.556934073E2,-9.419154525E-1,-6.031687856E-1,-6.075494885E-1,1.272844721E0
2.558937603E2,-1.312108189E-1,-6.883733273E-1,3.288329765E-2,7.015379020E-1
2.560941143E2,7.722863555E-2,-2.377343178E-1,7.317894101E-1,7.733030510E-1
2.562944666E2,-1.046155810E0,-1.263386011E-1,-6.328274608E-1,1.229176154E0
2.564948196E2,1.963352799E0,1.467620432E-1,-9.719720483E-2,1.971228198E0
2.566951726E2,-5.106359124E-1,-1.854009330E-1,-8.091716766E-1,9.746185630E-1
2.568955266E2,2.618477345E-1,-4.391473830E-1,1.998961568E-1,5.489746201E-1
2.570958796E2,1.027395368E0,1.519916296E0,1.946725249E0,2.674962801E0
2.572962325E2,-2.050647587E-1,8.522977680E-2,7.523933649E-1,7.844816414E-1
2.574965855E2,1.140482068E0,-1.995413750E-1,-1.834436953E-1,1.172248991E0
2.576969385E2,-1.391557604E-1,4.714806080E-1,-1.684012413E-1,5.196318576E-1
2.578972915E2,-1.484718919E0,-4.114333093E-1,-5.630328059E-1,1.640327277E0
2.580976445E2,-1.271784678E-2,-1.869079657E-2,5.761558414E-1,5.765992048E-1
2.582979980E2,-2.557738423E-1,2.895590477E-2,4.792189300E-1,5.439756297E-1
2.584983510E2,-6.051998138E-1,-5.465905741E-2,-6.310836673E-1,8.760827714E-1
2.586987040E2,-1.777141839E-1,-5.253996849E-1,-1.294836760E0,1.408626776E0
2.588990570E2,-8.059900254E-2,3.862841725E-1,-3.847012818E-1,5.510959421E-1
2.590994100E2,7.873563096E-3,-3.816629052E-1,3.497500718E-2,3.833429500E-1
2.592997631E2,1.227279186E0,9.451876879E-1,1.311693549E0,2.029811305E0
2.595001161E2,2.181574330E-2,2.328300774E-1,7.357009053E-1,7.719725343E-1
2.597004691E2,3.841995597E-1,5.732725188E-2,-4.032055438E-1,5.598842970E-1
2.599008211E2,5.971610546E-1,1.788975485E-2,-3.038526177E-1,6.702594884E-1
2.601011741E2,-7.136105299E-1,-3.097974360E-1,-1.504022330E-1,7.923605691E-1
2.603015273E2,2.711444721E-2,4.623652995E-2,-3.581072986E-1,3.620964613E-1
2.605018803E2,-3.020927012E-1,-7.303967476E-1,5.233200192E-1,9.479468611E-1
2.607022323E2,2.069124393E-2,-2.916895747E-1,-8.423696756E-1,8.916824581E-1
2.609025853E2,3.978882730E-1,-1.971729249E-1,-1.002441525E0,1.096394661E0
2.611029383E2,3.219622374E-1,-2.405717522E-1,-6.398499012E-1,7.556072699E-1
2.613032900E2,3.695035279E-1,-4.624042194E-3,2.144200504E-1,4.272355286E-1
2.615036430E2,1.292950511E0,4.423911273E-1,7.217228413E-1,1.545417352E0
2.617039960E2,-1.992968172E-1,6.693164706E-1,6.818070412E-1,9.759941601E-1
2.619043480E2,1.066712260E0,5.726909041E-1,-5.711662769E-1,1.338686234E0
2.621047010E2,-1.226187721E-1,-5.865931511E-1,-1.315861046E-1,6.135485238E-1
2.623050528E2,-4.268289506E-1,-3.434038758E-1,-8.338242769E-1,9.976833665E-1
2.625054058E2,6.133038402E-1,3.166231215E-1,9.582744837E-1,1.180966463E0
2.627057578E2,-1.231855273E0,-4.276509285E-1,9.915985912E-2,1.307740574E0
2.629061098E2,-1.218822718E0,2.739394307E-1,-7.586649656E-1,1.461555390E0
2.631064628E2,9.529495835E-1,-7.324073315E-1,4.652677476E-2,1.202787657E0
2.633068151E2,-1.198322177E0,-2.083907872E-1,-1.514234185E0,1.942243015E0
2.635071681E2,-8.346332908E-1,1.095927507E-1,-3.628152907E-1,9.166560076E-1
2.637075201E2,-1.017406508E-1,-3.638203144E-1,8.209685087E-1,9.037176957E-1
2.639078721E2,-8.165124655E-1,-3.472775221E-1,1.748330593E-1,9.043566123E-1
2.641082241E2,-1.372911036E-1,-1.639662534E-1,-4.775352776E-1,5.232339063E-1
2.643085766E2,3.286820054E-1,-5.898947120E-1,-9.323053360E-1,1.151173693E0
2.645089286E2,9.105497599E-2,-4.952276498E-2,-5.151098371E-1,5.254347316E-1
2.647092806E2,-4.944179673E-4,8.409864902E-1,6.970707178E-1,1.092321430E0
2.649096326E2,2.028001547E0,4.790191352E-1,9.833480120E-1,2.304175106E0
2.651099846E2,1.242144555E-1,5.352904797E-1,6.692407131E-1,8.659377926E-1
2.653103377E2,-2.734893560E-1,6.975318491E-2,-5.791345239E-1,6.442505191E-1
2.655106897E2,6.978612542E-1,2.809138596E-1,2.094675452E-1,7.808966507E-1
2.657110417E2,-1.480259299E0,-1.002889514E0,-8.643599749E-1,1.985969067E0
2.659113937E2,4.353472292E-1,5.850640312E-2,3.316841424E-1,5.504221830E-1
2.661117457E2,-6.710405350E-1,-2.390269637E-1,9.897231460E-1,1.219418384E0
2.663120982E2,-1.469468772E-1,9.599417448E-2,-1.717466414E-1,2.455711202E-1
2.665124502E2,3.584884107E-2,-3.578633964E-1,-3.502776325E-1,5.020416016E-1
2.667128022E2,-7.513323426E-1,-3.629283011E-1,-1.176325083E0,1.442205929E0
2.669131532E2,-4.300251603E-1,-3.488985822E-2,5.937302858E-2,4.355044170E-1
2.671135052E2,4.439328015E-1,-3.148125708E-1,9.401483834E-2,5.522880379E-1
2.673138574E2,-4.207938313E-1,2.037751675E-1,3.631411791E-1,5.919993947E-1
2.675142094E2,-1.455910802E-1,-3.135951981E-2,1.037134603E-1,1.814846108E-1
2.677145614E2,5.404805541E-1,2.206861228E-1,-2.937007844E-1,6.535149156E-1
2.679149134E2,1.047486216E-1,2.615230680E-1,1.006552652E-1,2.991622824E-1
2.681152644E2,-5.611972511E-2,4.088160098E-1,6.059496105E-2,4.170751763E-1
2.683156156E2,1.269792080E0,1.512356043E0,1.158697486E0,2.289579130E0
2.685159676E2,2.143730409E-3,4.421486855E-1,4.543461204E-1,6.339798520E-1
2.687163196E2,2.120507061E-1,-3.974894062E-2,-1.066298932E-1,2.406562162E-1
2.689166706E2,3.999897242E-1,8.126474619E-1,-2.245954983E-2,9.060309642E-1
2.691170226E2,-5.795239210E-1,-4.824018180E-1,-5.705650449E-1,9.455707057E-1
2.693173750E2,2.815455496E-1,3.982839286E-1,6.904890537E-1,8.453834146E-1
2.695177260E2,-6.028484702E-1,-9.891687632E-1,7.176316530E-2,1.160616677E0
2.697180780E2,-5.347949266E-1,-1.571646333E-1,-3.965318799E-1,6.840642275E-1
2.699184290E2,-5.465589762E-1,-7.252977490E-1,-8.528752923E-1,1.245865082E0
2.701187810E2,-5.644992590E-1,-4.158087969E-1,-1.041025877E0,1.255106069E0
2.703191317E2,-4.397896230E-1,-2.799221575E-1,-3.061307967E-1,6.045555322E-1
2.705194837E2,6.842684746E-1,-4.250892401E-1,-3.630481288E-2,8.063759959E-1
2.707198347E2,4.301616848E-1,8.615080267E-2,6.356095672E-1,7.723085897E-1
2.709201867E2,3.506140411E-1,5.034419894E-1,1.155661605E-2,6.136102981E-1
2.711205377E2,5.252534151E-1,-6.677425504E-1,1.352239517E-3,8.495722996E-1
2.713208888E2,-2.452844083E-1,1.997831017E-1,-5.737886429E-1,6.552183876E-1
2.715212408E2,7.602137327E-2,-1.135020610E-2,4.603853524E-1,4.667576984E-1
2.717215918E2,1.230713010E0,1.135752201E0,1.085984349E0,1.995983362E0
2.719219428E2,-3.057274502E-3,1.222744823E0,1.051157355E0,1.612465824E0
2.721222938E2,-6.482977271E-1,-6.752598882E-1,-6.988270283E-1,1.168171680E0
2.723226465E2,3.342614472E-1,2.370412648E-2,-1.935539097E-1,3.869828376E-1
2.725229975E2,-7.748025060E-1,-5.688890219E-1,-4.157272875E-1,1.047273995E0
2.727233485E2,9.236913174E-2,1.381310821E-1,3.684538305E-1,4.041911398E-1
2.729236995E2,-1.021331906E0,-7.855459452E-1,2.551030219E-1,1.313498704E0
2.731240505E2,-2.615390904E-2,-7.392646670E-1,2.631045878E-1,7.851243844E-1
2.733244006E2,-9.695594311E-1,-4.480297491E-2,-9.814691544E-1,1.380338545E0
2.735247516E2,-5.077027157E-2,3.889890015E-1,-6.995167136E-1,8.020060451E-1
2.737251026E2,5.573031902E-1,-2.693574727E-1,1.664777249E-1,6.409798178E-1
2.739254536E2,2.903410234E-2,-4.865066707E-1,-4.192756414E-1,6.429026235E-1
2.741258046E2,-1.418511569E-1,6.123341918E-1,4.876185060E-1,7.955166375E-1
2.743261561E2,5.733754039E-1,-8.764165640E-1,-1.158062458E0,1.561401295E0
2.745265071E2,1.005172610E0,1.029546738E0,8.020892143E-1,1.647326795E0
2.747268581E2,7.518251240E-2,-2.854588628E-2,9.840246290E-2,1.270839191E-1
2.749272091E2,1.278714091E-1,2.787656188E-1,1.675910354E-1,3.494969565E-1
2.751275601E2,8.020854741E-2,1.089941859E0,1.555673122E0,1.901190556E0
2.753279114E2,-7.792592049E-1,-7.557711750E-2,-9.355340153E-2,7.884852871E-1
2.755282624E2,3.003261387E-1,-8.836508542E-2,8.701714128E-2,3.249248541E-1
2.757286124E2,-2.216476947E-1,9.976372123E-2,-3.317566514E-1,4.112699556E-1
2.759289634E2,-6.496048570E-1,-3.176801801E-1,-2.299893647E-1,7.588163644E-1
2.761293144E2,2.287644595E-1,-7.385554910E-2,2.222148925E-1,3.273641375E-1
2.763296647E2,-5.628779531E-1,-1.228355169E-1,7.185425609E-3,5.761699268E-1
2.765300147E2,8.049711585E-1,-4.196195304E-2,-2.096721232E-1,8.328876099E-1
2.767303657E2,6.740222573E-1,-6.217615604E-1,-9.854627848E-1,1.346116764E0
2.769307157E2,-6.545145065E-2,-2.305960804E-1,-6.056129336E-1,6.513259323E-1
2.771310667E2,-1.366586685E-1,3.314445913E-1,1.640838683E-1,3.942773448E-1
2.773314166E2,1.091268897E0,3.601111770E-1,1.784898192E-1,1.162930127E0
2.775317676E2,-3.609493673E-1,6.811476946E-1,8.018904924E-1,1.112328634E0
2.777321176E2,3.327214122E-1,-2.187596858E-1,-1.905826777E-1,4.414533897E-1
2.779324686E2,8.885812163E-1,1.006485224E0,5.333993435E-1,1.444681260E0
2.781328186E2,5.328369886E-2,-1.640018821E-1,-2.097934037E-1,2.715677487E-1
2.783331690E2,-1.340034753E-1,2.319838405E-1,2.389272749E-1,3.589703001E-1
2.785335200E2,-4.677106440E-1,-3.307246566E-1,7.579799294E-1,9.500871636E-1
2.787338700E2,-2.267235070E-1,4.377282560E-1,-1.128524262E-2,4.930891719E-1
2.789342200E2,1.937239915E-1,-4.297966659E-1,-9.730459005E-2,4.813754690E-1
2.791345710E2,-3.806711733E-1,-1.493159235E-1,-1.099527717E0,1.173101439E0
2.793349207E2,4.931937158E-1,-9.851294160E-1,6.413996220E-1,1.274799389E0
2.795352708E2,-2.995141447E-1,-6.046332419E-2,-4.453760684E-1,5.401151532E-1
2.797356208E2,-3.178067207E-1,2.207828313E-1,6.357473135E-2,3.921580253E-1
2.799359708E2,8.302510977E-1,-7.670351267E-1,-2.205576450E-1,1.151653353E0
2.801363207E2,4.040794671E-1,-7.086753249E-1,-8.301524520E-1,1.163896054E0
2.803366711E2,-3.807379603E-1,7.950797677E-3,-1.513348818E-1,4.097887945E-1
2.805370221E2,5.537826940E-2,1.896388084E-1,4.243093431E-1,4.680470585E-1
2.807373721E2,1.097245455E0,2.065168023E-1,8.249887824E-1,1.388237468E0
2.809377221E2,-1.283641905E-1,7.555166483E-1,5.041452050E-1,9.173031990E-1
2.811380721E2,2.477144897E-1,3.870198131E-1,8.146062493E-2,4.666718735E-1
2.813384216E2,7.146159410E-1,4.582989514E-1,-7.541197538E-2,8.522915218E-1
2.815387716E2,-8.758787513E-1,-2.021562457E-1,-2.995717824E-1,9.475093601E-1
2.817391216E2,6.801028848E-1,8.431919664E-2,6.733224988E-1,9.607355766E-1
2.819394706E2,-4.006009102E-1,1.177061349E-1,9.046834111E-1,9.963874235E-1
2.821398206E2,3.079967201E-1,-1.462806612E-1,3.025343716E-1,4.558366565E-1
2.823401707E2,-1.659572959E0,2.628984153E-1,-7.005939484E-1,1.820475175E0
2.825405207E2,2.280933261E-1,-3.347880393E-2,-8.063105345E-1,8.386203394E-1
2.827408707E2,-2.772544026E-1,-1.334529400E0,-3.956547678E-1,1.419289054E0
2.829412207E2,1.042238399E-1,-4.954630136E-1,-2.588582039E-1,5.686420460E-1
2.831415697E2,-1.365199983E-1,2.514786720E-1,1.715581864E-1,3.336336970E-1
2.833419196E2,-7.612343878E-3,3.468413949E-1,-4.523537308E-2,3.498616012E-1
2.835422696E2,3.396159410E-1,-7.541556358E-1,-5.511107445E-1,9.938877015E-1
2.837426196E2,6.809337437E-2,-5.441704392E-1,-7.071948051E-1,8.949204808E-1
2.839429686E2,-3.018482625E-1,2.818342745E-1,-2.418214977E-1,4.785609351E-1
2.841433186E2,1.140152812E0,8.224678636E-1,1.544479489E0,2.088496759E0
2.843436696E2,1.403211355E-1,5.432620645E-1,8.132752180E-1,9.880487194E-1
2.845440186E2,1.879684806E0,-6.257836223E-1,1.300964206E-1,1.985382882E0
2.847443686E2,-5.466268063E-1,6.174135804E-1,-2.579640746E-1,8.640288528E-1
2.849447176E2,-9.162023664E-1,-2.626980543E-1,-4.268530309E-1,1.044337375E0
2.851450676E2,2.179273218E-1,-3.956305385E-1,1.006534621E-1,4.627601538E-1
2.853454160E2,-1.155758858E0,-4.262499511E-1,6.294256449E-2,1.233462332E0
2.855457660E2,-5.234870911E-1,-2.214343995E-1,-4.092726111E-1,7.004113063E-1
2.857461160E2,1.925922185E-1,-1.083971024E0,-1.825623989E0,2.131897721E0
2.859464650E2,7.142229676E-1,3.441560268E-1,1.686457843E-1,8.105548833E-1
2.861468140E2,-2.797976732E-1,-4.347777069E-1,9.262976795E-2,5.252605698E-1
2.863471647E2,1.204581022E0,6.778509617E-1,2.925390303E-1,1.412825697E0
2.865475137E2,2.059288025E-1,6.420839429E-1,6.358754039E-1,9.268311554E-1
2.867478637E2,1.867144555E-1,-6.141581386E-2,-2.243136168E-1,2.982461881E-1
2.869482127E2,6.991151571E-1,6.869625449E-1,5.179796815E-1,1.108594827E0
2.871485617E2,-6.259913445E-1,-3.014402092E-1,-3.973348737E-1,8.003788883E-1
2.873489111E2,2.233206481E-1,-5.566912889E-1,4.529794157E-1,7.516433024E-1
2.875492601E2,-4.000537992E-1,5.318017006E-1,1.078099728E0,1.266947163E0
2.877496091E2,-4.904917479E-1,1.625650227E-1,2.758602500E-1,5.857545722E-1
2.879499581E2,-2.527100146E-1,9.831100106E-1,3.175373375E-1,1.063577738E0
2.881503081E2,5.578799173E-2,-5.404992700E-1,-1.000482082E0,1.138514891E0
2.883506569E2,-1.327870250E0,-1.609585285E-1,-8.149971962E-1,1.566322916E0
2.885510059E2,4.776465297E-1,-1.880032718E-1,2.726462781E-1,5.812292409E-1
2.887513549E2,-2.682956867E-2,-8.550956845E-2,2.330224663E-1,2.496621354E-1
2.889517039E2,-2.251231968E-1,-2.682060748E-2,-3.475127518E-1,4.149275978E-1
2.891520529E2,-5.438559651E-1,-2.473681122E-1,-1.350711942E0,1.476953975E0
2.893524016E2,5.336068273E-1,3.828089237E-1,-2.111475021E-1,6.898276493E-1
2.895527506E2,-6.689707935E-2,-4.710622430E-1,-2.948799133E-1,5.597580006E-1
2.897530996E2,2.173801184E0,9.304589629E-1,1.486896515E0,2.793210825E0
2.899534486E2,3.465986624E-2,5.384320393E-2,6.085606217E-1,6.119202785E-1
2.901537976E2,-1.024183556E-1,-6.920235157E-1,-7.029266357E-1,9.917116119E-1
2.903541470E2,1.305313587E0,1.125028849E0,4.334307015E-1,1.776906200E0
2.905544960E2,-4.272189736E-1,-2.855871618E-1,-2.801339924E-1,5.852786790E-1
2.907548450E2,7.169314623E-1,5.449564010E-2,2.048724890E-1,7.476183740E-1
2.909551940E2,-5.780472159E-1,5.078799129E-1,1.355057478E0,1.558287957E0
2.911555430E2,-9.112479687E-1,7.081583738E-1,8.281840943E-3,1.154092601E0
2.913558923E2,-5.255593061E-1,8.313570619E-1,-9.040992856E-1,1.335950099E0
2.915562403E2,5.918502212E-1,-4.063615799E-1,-3.892916739E-1,8.166788997E-1
2.917565893E2,-8.091115355E-1,-3.856024444E-1,-5.124379992E-1,1.032445362E0
2.919569383E2,8.043175340E-1,-4.889989793E-1,1.025655717E-1,9.468718993E-1
2.921572873E2,6.965661645E-1,7.093139887E-1,3.433889449E-1,1.051782641E0
2.923576355E2,-5.736663342E-1,-3.247244060E-1,-6.689926386E-1,9.391965467E-1
2.925579845E2,2.009660959E0,4.283128083E-1,7.155054808E-1,2.175807235E0
2.927583335E2,1.654242277E-1,4.669409096E-1,7.918700576E-3,4.954409087E-1
2.929586815E2,-8.101627976E-2,2.150278091E-1,7.436518073E-1,7.783435018E-1
2.931590305E2,7.854339480E-2,-1.167116016E-1,7.401450276E-1,7.533958619E-1
2.933593792E2,-5.240288973E-1,2.371765226E-1,-6.817883253E-1,8.920169890E-1
2.935597272E2,4.617148042E-1,-1.728646085E-2,3.282988444E-2,4.632031773E-1
2.937600762E2,-3.746028543E-1,-7.771127224E-1,-4.002460539E-1,9.510143981E-1
2.939604242E2,-1.028898478E0,-6.795187593E-1,-4.662416875E-1,1.318240924E0
2.941607732E2,3.203064203E-1,5.812630653E-1,4.098218083E-1,7.800108131E-1
2.943611211E2,-1.496013045E0,-1.397950530E0,-2.727503143E-2,2.047697400E0
2.945614701E2,-5.913102627E-2,-7.580291629E-1,-1.410437971E-1,7.733033317E-1
2.947618181E2,-3.469812572E-1,-1.339631915E0,-1.595929503E0,2.112344821E0
2.949621661E2,-2.507261932E-1,5.982741714E-1,-9.319253564E-1,1.135464873E0
2.951625151E2,-1.165710613E-1,8.566858619E-2,2.312980592E-1,2.728125935E-1
2.953628626E2,1.125900507E0,4.165031016E-2,-7.537221909E-2,1.129188944E0
2.955632106E2,6.276971847E-2,7.040840983E-1,7.016180754E-1,9.959630409E-1
2.957635586E2,-3.457808495E-1,4.464583397E-1,3.635207415E-1,6.715927147E-1
2.959639076E2,1.659370065E0,7.954080105E-1,1.189444184E0,2.191109395E0
2.961642556E2,-8.727818727E-1,-3.070254922E-1,-6.523607969E-1,1.132072197E0
2.963646039E2,5.480575562E-1,2.004989982E-1,4.497421682E-1,7.367733376E-1
2.965649519E2,-3.346130848E-1,-1.465610266E-1,9.605652094E-1,1.027682622E0
2.967653009E2,-4.106291533E-1,1.071913913E-1,-2.373338491E-2,4.250524314E-1
2.969656489E2,-3.338603303E-2,-6.732273698E-1,-7.998614907E-1,1.046005795E0
2.971659969E2,-2.974222004E-1,1.053238660E-1,-4.325113595E-1,5.353682453E-1
2.973663455E2,-9.719963670E-1,-5.087827519E-2,-2.628568411E-1,1.008196040E0
2.975666935E2,3.571885526E-1,-5.108382180E-2,-2.951954603E-1,4.661904962E-1
2.977670415E2,3.741486967E-1,-3.452513814E-1,6.081211567E-1,7.930933771E-1
2.979673895E2,5.582384467E-1,1.054335952E0,-1.916414946E-1,1.208296704E0
2.981677375E2,2.409002036E-1,-9.519904852E-1,5.854804814E-2,9.837411580E-1
2.983680850E2,3.325674534E-1,3.479310870E-1,-5.604196191E-1,7.387335797E-1
2.985684330E2,2.239445150E-1,-4.145614207E-1,2.373336256E-1,5.275789677E-1
2.987687810E2,-1.091929600E-1,8.218768835E-1,9.290444255E-1,1.245202096E0
2.989691290E2,-4.165576100E-1,3.359512985E-1,4.440892115E-2,5.369875880E-1
2.991694770E2,8.493504524E-1,3.190385103E-1,8.845721185E-2,9.115955465E-1
2.993698235E2,-2.799294889E-1,-4.545743763E-2,-2.445334643E-1,3.744643008E-1
2.995701715E2,-9.765943885E-1,-3.122136295E-1,-4.813975096E-1,1.132677144E0
2.997705195E2,8.238229156E-1,2.568370998E-1,1.082434893E0,1.384310221E0
2.999708675E2,-1.034820080E0,-5.852313638E-1,6.040211767E-2,1.190376731E0
3.001712155E2,-7.332277894E-1,1.296451241E-1,-6.105737090E-1,9.629284000E-1
3.003715633E2,1.581977606E-1,-6.511431187E-2,-2.670585513E-1,3.171540239E-1
3.005719113E2,-3.005867004E-1,4.188377261E-1,2.073150426E-1,5.556590071E-1
3.007722593E2,-5.041358471E-1,-3.064858019E-1,1.555174589E-1,6.101411141E-1
3.009726063E2,-1.941166669E-1,-2.476257682E-1,-4.287084937E-2,3.175495413E-1
3.011729543E2,1.843604445E-1,3.106632531E-1,8.524652719E-1,9.258495937E-1
3.013733023E2,-4.973088205E-1,5.669710040E-1,-5.785027146E-2,7.563853755E-1
3.015736492E2,1.568753242E0,6.103318930E-1,5.515388846E-1,1.771351715E0
3.017739973E2,-3.208056837E-2,5.216282010E-1,-5.145703554E-1,7.334219751E-1
3.019743443E2,4.267012179E-1,8.883743286E-1,5.098779202E-1,1.109620823E0
3.021746923E2,8.959091902E-1,3.043085337E-1,1.384053946E0,1.676562640E0
3.023750395E2,-8.696957231E-1,1.087450504E0,1.467293262E0,2.022836812E0
3.025753875E2,5.627374649E-1,-1.572510451E-1,2.582328618E-1,6.388157453E-1
3.027757345E2,6.630654931E-1,3.126598001E-1,2.234607488E-1,7.663854807E-1
3.029760825E2,-7.919879556E-1,6.266374141E-3,-4.899494648E-1,9.313080410E-1
3.031764295E2,3.856851757E-1,-5.115723982E-2,6.826444864E-1,7.857312599E-1
3.033767754E2,-7.904467732E-2,4.504206479E-1,1.230796576E0,1.313006866E0
3.035771234E2,-3.789435923E-1,8.514713645E-1,4.246611893E-1,1.024177161E0
3.037774704E2,7.334242761E-2,-1.141786948E-1,-1.578318119E0,1.584141399E0
3.039778174E2,4.527204335E-1,8.461064696E-1,-3.612677455E-1,1.025361562E0
3.041781654E2,3.787216917E-2,1.009343863E0,2.257443219E-1,1.034973349E0
3.043785133E2,1.099536419E0,-8.506692648E-1,1.478013955E-2,1.390265078E0
3.045788603E2,-3.590628505E-2,4.223513305E-1,5.581597686E-1,7.008653472E-1
3.047792073E2,1.665228605E-2,-4.528170684E-4,-6.270325780E-1,6.272538223E-1
3.049795543E2,1.223104358E0,7.232275009E-1,4.329081476E-1,1.485412990E0
3.051799013E2,3.377314657E-2,-3.764637411E-1,-7.003977895E-1,7.958785317E-1
3.053802481E2,8.031838387E-2,-3.438198864E-1,-3.325568512E-2,3.546393911E-1
3.055805961E2,9.631577879E-2,4.158686101E-1,1.009952903E0,1.096461717E0
3.057809431E2,-3.023972511E-1,3.344040215E-1,1.682064682E-1,4.812105184E-1
3.059812901E2,1.464932263E-1,-7.008703947E-1,-3.204949200E-1,7.844721597E-1
3.061816371E2,-6.867914796E-1,2.798426664E-3,-9.209292531E-1,1.148825947E0
3.063819838E2,-9.996814728E-1,-8.753017187E-1,-7.675477266E-1,1.534485470E0
3.065823298E2,2.490364611E-1,-5.755497217E-1,-4.752901196E-1,7.868782237E-1
3.067826768E2,6.728863716E-1,1.126733199E-1,8.365111351E-1,1.079454596E0
3.069830238E2,-6.772906184E-1,-1.085134268E0,-1.431910872E0,1.920054090E0
3.071833708E2,1.975163460E0,5.090886354E-1,1.175957322E0,2.354425101E0
3.073837186E2,-4.519128203E-1,-5.064157248E-1,-7.677723765E-1,1.024771441E0
3.075840656E2,2.720621526E-1,-1.503323317E-1,7.664022595E-2,3.201427011E-1
3.077844126E2,6.984895468E-1,7.026571631E-1,1.622157931E0,1.900792227E0
3.079847586E2,-4.417622685E-1,5.484636426E-1,9.080640078E-1,1.149150343E0
3.081851056E2,6.336521506E-1,-8.750827983E-3,3.689017594E-1,7.332667544E-1
3.083854518E2,-1.596544832E-1,-1.324433684E-1,-3.291657567E-1,3.890769785E-1
3.085857978E2,-1.239279151E0,-4.106927216E-1,-6.915156245E-1,1.477387960E0
3.087861448E2,3.882727027E-1,3.168650866E-1,7.236153483E-1,8.802149437E-1
3.089864917E2,-3.362303972E-1,-3.357999921E-1,-1.905815862E-2,4.755793605E-1
3.091868378E2,-2.014911771E-1,4.718005657E-1,-8.816644549E-1,1.020062096E0
3.093871846E2,8.842552900E-1,1.402873993E-1,-6.605775356E-1,1.112632308E0
3.095875306E2,-6.778916121E-1,-9.654780477E-2,-6.152614355E-1,9.205461153E-1
3.097878776E2,-9.531699121E-2,4.850421473E-2,1.613002568E-1,1.935349078E-1
3.099882236E2,1.292085648E0,-9.895842671E-1,2.962488234E-1,1.654244755E0
3.101885706E2,1.165054515E-1,9.081159234E-1,6.518812180E-1,1.123920448E0
3.103889167E2,-6.589993089E-2,1.225232258E-1,4.172262549E-2,1.452429662E-1
3.105892638E2,1.539993763E0,1.273927927E0,9.440260530E-1,2.210352538E0
3.107896098E2,-3.159248829E-1,-1.882821172E-1,-4.213839173E-1,5.593059030E-1
3.109899558E2,1.915040016E-1,4.021832049E-1,2.067888230E-1,4.911076565E-1
3.111903028E2,3.189952970E-1,4.782699645E-1,1.067787170E0,1.212711672E0
3.113906491E2,2.340263277E-1,3.579769731E-1,-1.801093817E-1,4.640638153E-1
3.115909951E2,-1.256088018E-1,-3.357999325E-1,1.613872200E-1,3.931729906E-1
3.117913421E2,-6.146531701E-1,1.407547951E0,-1.579872966E0,2.203403808E0
3.119916881E2,-3.403307796E-1,-7.813609838E-1,-1.744017452E-1,8.699229824E-1
3.121920341E2,1.262297928E-1,-1.182799861E-1,9.406738281E-1,9.564472629E-1
3.123923800E2,-3.856545081E-3,1.821909100E-2,2.660861909E-1,2.667370788E-1
3.125927260E2,-1.117363572E0,-7.525399327E-1,-1.154043674E0,1.773875561E0
3.127930730E2,1.517159939E0,2.432647794E-1,-1.228007823E-1,1.541438310E0
3.129934190E2,6.066641584E-2,2.115907520E-1,-1.064680070E-1,2.445127744E-1
3.131937650E2,5.159501433E-1,1.877562851E-1,7.470462322E-1,9.271111293E-1
3.133941112E2,1.571210861E0,4.765880108E-1,2.069416285E0,2.641651654E0
3.135944572E2,-8.391558528E-1,9.243965149E-1,4.570934474E-1,1.329520922E0
3.137948032E2,5.816604495E-1,2.386565506E-1,-4.627027810E-1,7.806277546E-1
3.139951492E2,-2.011210918E-1,4.665003419E-1,-5.985475332E-2,5.115220954E-1
3.141954952E2,-1.447620869E0,1.116353348E-1,-6.896243691E-1,1.607373758E0
3.143958413E2,6.456786394E-2,5.144990683E-1,4.531609416E-1,6.886458736E-1
3.145961862E2,-1.183661819E0,-8.900064826E-1,-2.783285975E-1,1.506862186E0
3.147965323E2,-4.972832203E-1,5.177103281E-1,-2.656277455E-2,7.183454364E-1
3.149968783E2,-1.753432304E-2,-4.335252047E-1,-7.225070596E-1,8.427739950E-1
3.151972243E2,-1.866787821E-1,2.354947776E-1,-8.719633818E-1,9.222943657E-1
3.153975700E2,-9.644552134E-3,-3.641343713E-1,-3.576988280E-1,5.105245433E-1
3.155979160E2,2.179024667E-1,-5.865517259E-1,-5.990984440E-1,8.662813386E-1
3.157982610E2,1.045580208E-1,6.675791144E-1,8.738382459E-1,1.104620991E0
3.159986070E2,-1.848592162E-1,-3.026637137E-1,-6.870286465E-1,7.731666150E-1
3.161989530E2,7.061132789E-1,3.054994345E-1,-3.227814734E-1,8.343343135E-1
3.163992978E2,-5.978124738E-1,-6.833217293E-2,-2.062121779E-1,6.360601402E-1
3.165996438E2,3.088021278E-1,-3.325425461E-2,9.824610949E-1,1.030385560E0
3.167999898E2,-5.226195455E-1,5.057193637E-1,8.791341186E-1,1.140947003E0
3.170003348E2,-6.774249077E-1,6.931535602E-1,1.483203471E-1,9.804923706E-1
3.172006808E2,6.450200081E-1,1.169215798E0,-7.214386761E-2,1.337281246E0
3.174010261E2,-6.114326715E-1,-1.129610777E0,-1.095172644E0,1.687979129E0
3.176013721E2,-1.045283794E0,-5.510274172E-1,-1.102994680E0,1.616430231E0
3.178017171E2,6.739965081E-1,3.329461217E-1,1.679917574E0,1.840447627E0
3.180020631E2,-5.952442884E-1,-1.237637043E0,4.281862676E-1,1.438542559E0
3.182024081E2,-1.359952986E-1,-8.013629913E-1,-4.893034697E-1,9.487334982E-1
3.184027536E2,1.034883084E-3,-6.769686937E-1,-1.058659673E0,1.256601761E0
3.186030986E2,-1.069501117E-1,1.014081761E-1,-6.738910675E-1,6.898196253E-1
3.188034436E2,2.666599751E-1,-2.279846184E-2,-6.906716526E-2,2.764011315E-1
3.190037896E2,9.143239856E-1,3.303136826E-1,7.341961265E-1,1.218252614E0
3.192041346E2,-2.822843790E-1,9.224658608E-1,8.964834809E-1,1.316932180E0
3.194044800E2,3.397898674E-1,-7.399945706E-2,-4.821507931E-1,5.944766277E-1
3.196048260E2,5.966282487E-1,7.308518887E-2,4.760099947E-1,7.667413039E-1
3.198051710E2,-5.145437121E-1,-1.748306006E-1,-4.070681036E-1,6.789885209E-1
3.200055160E2,7.072540522E-1,4.456000328E-1,5.205864906E-1,9.847730590E-1
3.202058610E2,-5.567072034E-1,-1.799016744E-1,1.230010509E0,1.362062178E0
3.204062053E2,-4.537751377E-1,2.627548277E-1,3.806540072E-1,6.479579062E-1
