time,Acceleration x,Acceleration y,Acceleration z,abs Acceleration
682.9189229,-3.015030212,-2.454595642,7.271728363,8.245815929
683.1195859,-4.119583282,-0.538879395,15.18966293,15.7476099
683.3202489,-3.159629517,-1.350192261,5.264552307,6.286635731
683.5209129,-1.739532623,-2.627635803,10.32208511,10.7923994
683.7215793,-1.001866608,0.990190887,9.545350342,9.648726747
683.9222423,-4.654421082,-2.68646347,6.81697403,8.680544712
684.1229063,-5.782175903,0.176333313,12.15696945,13.46315557
684.3235693,0.5533992,-2.035167847,6.628366241,6.955817556
684.5242323,-4.900659027,-2.3237677,12.14469498,13.30075078
684.724893,1.221010895,-1.189276886,7.115752716,7.317047481
684.925556,-3.973786469,-1.795366516,8.832832031,9.85054524
685.126219,-3.168012085,-1.557511139,10.71861053,11.2849791
685.326883,-3.466341705,-1.522633667,9.610464935,10.32932594
685.527546,-3.550766144,-0.839604034,9.950857086,10.59869954
685.728209,-0.439336395,-1.29645401,6.41670639,6.561092163
685.928873,-4.563410339,-0.441881104,12.63103363,13.43737264
686.129536,-1.332079926,-0.27617569,6.243366852,6.389862251
686.3302,-4.752167816,-0.628692627,13.25718155,14.09720596
686.530863,-2.399659882,-0.777034149,10.22493713,10.53145237
686.731526,-3.342249756,-1.024918671,7.196135559,8.000341161
686.93219,-4.173920288,-0.271834717,13.94066025,14.55463888
687.132853,-1.72591095,-0.49846344,5.102439423,5.40944752
687.333516,-5.031786346,-2.445614319,11.88333847,13.13444466
687.53418,-2.21374649,-0.840202789,7.904462585,8.251493381
687.7348427,-4.282893677,-2.130968628,8.015232239,9.334246267
687.9355057,-3.487447815,2.261497192,12.66037262,13.32522783
688.1361697,-2.917133789,-0.671952667,5.101990356,5.91536098
688.3368327,-3.039130096,-6.290818176,13.70295456,15.38121155
688.5374967,-0.091908875,-1.057850189,6.087391205,6.179306267
688.738159,-4.48138092,-0.268242188,8.757987671,9.841599304
688.938822,-4.903353424,-0.830922089,11.98213303,12.97323468
689.139486,-1.939516754,-1.731599121,6.921756134,7.393975165
689.340149,-5.465135193,-2.322121124,8.456065521,10.33271471
689.540812,1.26951004,0.018411713,6.850204926,6.96687177
689.7414797,-4.857848053,-0.082927551,10.03393433,11.14833632
689.9421427,-3.969445496,-1.321452026,8.869954834,9.807080695
690.1428067,-3.85897522,-1.892664185,9.820927277,10.72028358
690.3434697,-5.56961792,-2.062411194,10.22388931,11.82379365
690.5441327,-1.283131714,-0.213755493,6.704857178,6.829877611
690.7447935,-4.28019928,0.594264221,14.64913696,15.27319448
690.9454565,-2.328408051,-0.320034485,4.625680847,5.188528637
691.1461205,-3.3124617,-1.591490479,10.33465897,10.96861069
691.3467835,-3.355572052,0.46807663,11.53486313,12.02214735
691.5474465,-2.581831055,-1.910177765,7.004533997,7.70572042
691.7481102,-5.601052551,0.681832123,12.26609253,13.50161882
691.9487732,-1.472188568,-0.463735657,5.290897522,5.51144142
692.1494372,-5.564229126,-3.32892746,13.59083771,15.05832904
692.3501002,0.447868652,-0.673898621,7.296277313,7.341007309
692.5507632,-5.24434433,-1.529369659,8.797655182,10.35571609
692.7514276,-3.614832916,-1.192869415,10.77654007,11.42907565
692.9520906,-2.800376587,-1.797013092,7.356601868,8.074091659
693.1527546,-4.654421082,-4.994214478,8.591683502,10.97373406
693.3534176,-0.317938843,0.445174255,6.258036346,6.281901316
693.5540806,-3.293301544,-2.939437408,10.65858536,11.53653194
693.754745,-4.260739746,-2.854863281,10.77339661,11.93189934
693.955408,-2.655777283,-2.977158966,7.61720993,8.598750817
694.156072,-3.496279449,-1.925446014,8.732989655,9.601896721
694.356735,-0.703986053,-0.245938568,5.674400024,5.723189476
694.557399,-4.37959259,-2.140548706,12.05742645,13.0055493
694.7580615,-2.85501297,-2.642904053,7.672445068,8.602467914
694.9587255,-3.284320221,-2.833457794,8.72999588,9.748234222
695.1593885,-3.528612213,-2.170935516,9.526339874,10.3882249
695.3600525,0.628842316,-1.125210114,6.693630524,6.816614266
695.5607155,-4.890180817,-1.661395111,13.58155701,14.53040925
695.7613794,-2.298919373,-1.579365692,5.399421844,6.077267686
695.9620424,-4.218677216,-1.048120422,12.05398361,12.81383295
696.1627064,-3.975283356,-1.61005188,11.29955246,12.08615036
696.3633694,-2.142494659,-1.939816132,6.078858948,6.730950609
696.5640334,-6.240223389,0.334703979,14.31592987,15.62044374
696.7646965,-1.500479736,-0.341140594,5.320835266,5.538872112
696.9653605,-5.53339325,-4.136498108,13.50132385,15.16623893
697.1660235,-0.733325043,-1.674717407,6.850204926,7.089975426
697.3666875,-3.808380432,-1.830543365,8.294252014,9.308558804
697.5673515,-5.399571533,1.066382446,11.63994461,12.87559144
697.7680181,-1.699116669,-0.902772675,5.929319916,6.233685156
697.9686821,-5.248236237,-3.813769226,9.555229797,11.54951236
698.1693451,1.291963348,-0.911005554,7.224576416,7.395512477
698.3700091,-4.725672913,-2.352208557,9.577234039,10.93564271
698.5706721,-2.819536743,-1.774110718,11.52618118,11.99792103
698.7713328,-1.839824066,-1.552870789,6.616540833,7.040949714
698.9719968,-5.032983856,-4.108356628,9.717642059,11.68940066
699.1726598,0.928818512,-0.537831573,6.444099426,6.532869511
699.3733238,-5.550607452,-0.944386139,11.55013138,12.84938299
699.5739868,-4.462071075,-1.491797791,8.425978088,9.650525668
699.7746537,-4.314927063,-2.158960419,8.551716614,9.81893898
699.9753167,-3.608096924,-2.360142059,10.11611343,10.99656242
700.1759807,-1.696272583,-0.552800446,6.137536926,6.391579502
700.3766447,-4.794380035,-0.653391266,13.25403809,14.10966072
700.5773077,-2.932102661,0.220940552,5.519771576,6.254112167
700.7779687,-4.159999237,-1.563798065,11.02517303,11.88719893
700.9786327,-1.641336823,0.087867279,10.97906891,11.10142609
701.1792957,-2.732866974,-1.521735535,6.17810257,6.924824351
701.3799597,-5.085075531,6.199208679,15.97552872,17.87472235
701.5806227,-1.353485413,0.091759186,4.133204956,4.350140885
701.7812868,-5.680237885,-2.678679657,13.97134644,15.31792898
701.9819508,-0.017812958,-0.794996796,8.701405334,8.737665134
702.1826138,-4.315974884,-1.792672119,7.010222168,8.425231592
702.3832778,-5.599855042,2.283351746,12.71470963,14.07962757
702.5839408,-0.982556763,-1.114731903,5.920488281,6.104115538
702.7846054,-6.183042297,-3.419788513,11.42603943,13.43426003
702.9852694,0.597407684,-0.629291382,6.769822083,6.825202899
703.1859324,-6.514004059,-1.998344421,9.106013947,11.37299957
703.3865964,-3.590134277,-2.290237427,11.09792175,11.88688853
703.5872594,-3.581901398,-2.405797119,8.184530182,9.25226522
703.7879229,-4.447401581,-1.503772888,7.356152802,8.726608606
703.9885859,-0.152233429,-0.604143677,6.130651245,6.162227624
704.1892499,-6.203399963,-1.730850677,13.91940445,15.33713909
704.3899139,-4.089944916,-1.031954041,6.173761597,7.477159274
704.5905769,-5.246889038,-1.62996048,10.41070084,11.77154653
704.7912406,-4.421206055,-0.979113922,11.01574265,11.91017687
704.9919036,-1.833836517,-1.438209229,6.162534943,6.588492929
705.1925676,-5.865103455,0.139958954,14.94776596,16.05785584
705.3932306,-2.553539886,-0.619711304,4.542603607,5.247842946
705.5938946,-5.518723755,-1.88383255,12.00758011,13.34867473
705.7945595,-0.894988861,-0.802780609,9.240284729,9.31817169
705.9952225,-4.280947723,-1.989812164,5.973029022,7.613339711
706.1958865,-3.615281982,1.539099426,14.07493103,14.61310283
706.3965495,-1.286724243,-0.58273819,5.50989212,5.688071224
706.5972135,-5.329966278,-4.445904694,14.74299179,16.29510405
706.7978765,-1.131047974,0.553548889,7.0708461,7.182099307
706.9985405,-3.594325562,-1.594484253,8.923842773,9.751744773
707.1992035,-3.629352722,0.679586792,11.74008636,12.30705762
707.3998675,-1.94116333,-0.763113098,5.537135468,5.916952413
707.6005305,-6.216871948,-3.790717163,11.67093018,13.75607664
707.8011934,-0.165256348,0.178428955,7.304659882,7.30870731
708.0018564,-4.298610992,-3.650458832,8.619076538,10.30011585
708.2025204,-4.660558319,-1.326691132,10.36504578,11.44181311
708.4031834,-3.712429962,-1.594933319,8.074359283,9.028910585
708.6038464,-5.043462067,-0.926423492,10.4430336,11.63407585
708.80451,-0.006137238,-0.595910797,6.153104553,6.181896391
709.005173,-4.412075043,-1.171763306,14.58731552,15.28493407
709.205837,-3.361858978,-1.149759064,6.150709534,7.103187275
709.4065,-4.35384613,-0.784368896,10.58359131,11.47099018
709.607164,-3.417692871,-0.482596436,11.01664078,11.54469133
709.8078275,-1.293160858,-1.10575058,6.137686615,6.369155857
710.0084915,-4.43692337,-0.111967163,14.24422897,14.91968112
710.2091545,-2.66430954,0.163909149,5.33789978,5.968130829
710.4098175,-3.801494751,-3.801494751,11.54354507,12.73405503
710.6104815,-1.809137878,-0.925824738,9.143735504,9.366858079
710.811145,-4.22406601,-2.259102173,6.881340179,8.384456986
711.011809,-3.660188599,1.033750305,13.1265033,13.66640805
711.212472,-1.772613831,-1.475182343,4.849166107,5.369612153
711.413136,-6.776857452,-5.757327576,12.92157944,15.68565692
711.613799,0.922232208,-1.383423157,6.102809143,6.32523923
711.8144627,-5.162913666,-2.482737122,9.059161377,10.71858507
712.0151257,-4.504283295,-2.548001404,11.23368942,12.36837326
712.2157897,-1.950593719,-2.121538239,5.978717194,6.637077643
712.4164527,-5.684578857,-2.315534821,9.616302795,11.40830477
712.6171167,0.01167572,0.023201752,5.974675598,5.974732056
712.8177794,-6.479276276,-0.613424377,12.599599,14.18122722
713.0184434,-4.714895325,-1.326691132,9.126970367,10.35818205
713.2191064,-3.483705597,-2.331102448,8.43046875,9.415043635
713.4197704,-5.773643646,-4.368964691,9.0880513,11.6196166
713.6204334,-0.264499969,0.938697968,6.429130554,6.50267897
713.8210974,-5.506898346,1.325044556,11.40223892,12.73156412
714.0217604,-2.637964325,-1.30812973,6.908284149,7.509623763
714.2224244,-4.282444611,-1.231788483,11.54788605,12.37781511
714.4230874,-4.615651703,0.998274078,10.68522995,11.68224854
714.6237514,-1.109642487,-0.428708496,7.020850067,7.120915186
714.8244145,-6.040688324,-0.697998505,13.97029861,15.23634998
715.0250785,-2.337389374,0.002544708,5.415438538,5.898336216
715.2257415,-6.013594666,-2.156864777,12.37012619,13.92247853
715.4264055,-2.061363373,-0.828826447,9.627978516,9.880999065
715.6270685,-3.413501587,-1.281934204,7.318131866,8.176209538
715.8277325,-4.463118896,0.525108032,12.62699203,13.40283912
716.0283955,-2.700384521,-0.700243835,5.290298767,5.980775789
716.2290595,-6.379583588,-4.424349518,13.32858307,15.42482032
716.4297225,-0.605041809,-1.258283386,7.465724945,7.595156458
716.6303865,-4.537364502,-0.954115906,8.443042603,9.632392339
716.8310489,-4.323908386,0.570463715,10.08198441,10.98489973
717.0317129,-2.342927856,-1.73519165,6.097120972,6.758334495
717.2323759,-5.237458649,-6.004164276,9.894424438,12.7035663
717.4330399,1.220711517,0.158670044,7.037315826,7.14416733
717.6337029,-7.332651672,-1.186732178,10.51548294,12.87445126
717.8343677,-3.832330627,-2.936144257,9.344767456,10.51819281
718.0350317,-2.801574097,-1.763632507,7.865094452,8.533400716
718.2356947,-6.448739777,-2.914589081,8.907526703,11.37651556
718.4363587,-0.546513519,0.292791138,6.259832611,6.290461668
718.6370217,-4.737049255,-0.933309174,11.90863586,12.85014824
718.8376852,-2.636467438,-1.557810516,7.060667267,7.696152052
719.0383482,-4.508624268,-2.676434326,10.63747925,11.85946703
719.2390122,-5.429658966,-1.088835754,10.14859589,11.56117461
719.4396752,-1.085392914,-0.66461792,6.315367126,6.442333172
719.6403392,-5.123096466,0.590671692,13.47363144,14.42684146
719.8410039,-3.063080292,-0.561332703,5.870043182,6.644920033
720.0416669,-4.922962646,-3.88936203,10.85273163,12.53572822
720.2423309,-1.636097717,0.30536499,13.43411362,13.53681913
720.4429949,-3.537743225,-2.012415161,5.4292099,6.785408023
720.6436579,-4.90260498,0.537382507,15.90083405,16.64814821
720.8443251,-2.475552063,-0.686173096,4.903503113,5.535660242
721.0449881,-5.690865784,-1.895957336,12.82203644,14.15574887
721.2456521,-0.487236786,-0.397423553,9.058712311,9.080507359
721.4463161,-3.204536133,-2.537523193,6.320007477,7.526657312
721.6469791,-4.487069092,2.449506226,11.83663559,12.89340187
721.8476399,-0.392334137,-1.250499573,5.04660553,5.214010225
722.0483039,-7.494614868,-2.844235382,12.96229477,15.2407353
722.2489669,0.012124786,-1.304387512,7.733218689,7.842464223
722.4496309,-4.657714233,-1.905986481,8.709937592,10.05932896
722.6502949,-5.575156403,0.087118835,11.28413452,12.58656627
722.8509582,-2.749931488,-1.866917725,7.576195221,8.273224221
723.0516223,-6.071224823,-2.462229767,8.295748901,10.57079922
723.2522852,-0.670306091,-0.217048645,6.069428558,6.110186854
723.4529493,-5.585784302,-2.354753265,10.54931259,12.16691602
723.6536133,-2.230811005,-2.407443695,7.205565948,7.917858519
723.8542794,-5.13552063,-1.997595978,10.5677243,11.91808537
724.0549434,-3.422931976,-0.379909973,10.03722748,10.61163184
724.2556074,-1.413061523,-0.854423218,6.500232697,6.706698667
724.4562704,-3.566633148,-1.474433899,14.93698837,15.42752245
724.6569344,-2.928659821,-1.095122681,5.369334412,6.213380244
724.8575951,-4.724325714,-1.495689697,11.72646469,12.7305269
725.0582581,-4.223766632,-0.447569275,10.64032333,11.45674489
725.2589221,-2.066452789,-1.038839722,6.539002075,6.935990429
725.4595861,-4.146227875,-1.657353516,13.65086288,14.36259321
725.6602491,-1.686991882,-0.146844635,5.31574585,5.578947831
725.8609161,-5.270988922,-0.583486633,13.13997528,14.16978233
726.0615801,-1.858535156,-0.388891296,9.496701508,9.684664625
726.2622431,-3.89055954,-1.44509491,7.588320007,8.649124428
726.4629071,-4.220323792,2.926713867,15.01198242,15.86620318
726.6635711,-1.275946655,-0.818497925,5.035079498,5.258327136
726.8642315,-5.184468842,-2.998863831,11.88603287,13.30975878
727.0648955,-0.052091675,0.164507904,8.600365448,8.602096386
727.2655595,-3.585942993,-2.104623413,8.606652374,9.558393796
727.4662225,-4.793930969,2.211800537,12.45934067,13.53177762
727.6668865,-2.258353729,-1.359173584,6.131399689,6.673947598
727.86755,-6.143524475,-8.011340332,11.24746078,15.11389563
728.068213,0.264949036,-0.361647949,6.654112701,6.669198083
728.268877,-4.75171875,-1.00276474,9.940528564,11.06338449
728.469541,-3.659290466,-1.207389221,10.47042664,11.15697223
728.670204,-2.046693878,-1.602417755,6.951095123,7.421214315
728.8708716,-4.041745148,-3.114273834,10.02046234,11.24473525
729.0715356,0.700094147,0.108075256,5.588628387,5.633345305
729.2721986,-7.281607819,-0.390088806,10.68747528,12.93816485
729.4728626,-2.154619446,-2.129771118,8.76861557,9.277226363
729.6735266,-4.89092926,-1.29061615,10.9154512,12.03054255
729.8741885,-2.137255554,-1.146316223,7.877219238,8.242116543
730.0748525,0.007783813,1.340761871,6.178701324,6.3225037
730.2755165,-5.307812347,1.508562927,14.56935287,15.57930285
730.4761795,-2.439477081,-1.053509216,6.474935303,6.998979731
730.6768435,-3.623664551,-1.778002625,10.42087967,11.17528394
730.877503,-4.368066559,-1.312021637,9.969717865,10.96342467
731.078167,-1.32100296,-0.244441681,7.117548981,7.2432247
731.278831,-6.818321228,1.475930786,13.77166168,15.43782827
731.479494,-3.103196869,-0.903221741,6.537355499,7.29264405
731.680158,-5.616919556,-2.519410858,11.43053009,12.98284385
731.8808225,-1.179547119,-2.031874695,10.62715073,10.88375757
732.0814855,-2.630629578,-0.610280914,8.6726651,9.083379036
732.2821495,-3.648213501,2.716251526,15.71626785,16.36119064
732.4828135,-2.097588043,-0.988993378,5.390290833,5.867982512
732.6834765,-3.408112793,-4.29651535,11.10046646,12.38126135
732.8841439,-2.050436096,-0.067509613,11.6174913,11.79724332
733.0848069,-3.852688293,-1.105451202,6.451733551,7.595399612
733.2854709,-4.665647736,2.756966858,14.38613388,15.37302778
733.4861349,-1.456471252,-1.223256226,4.662354584,5.035396168
733.6867979,-3.198847961,-8.982071686,9.390871582,13.38277658
733.887458,-3.074756012,0.834364929,8.167615356,8.766996634
734.088122,-3.581152954,-1.306183777,8.924890594,9.704867061
734.288785,-2.707120514,0.737815704,13.16377579,13.45948983
734.489449,-1.544787598,-1.448837128,3.405119019,4.010029087
734.690113,-4.019740906,-3.754941559,13.63125366,14.699285
734.890776,-1.736089783,1.288969574,8.240364075,8.519333916
735.09144,-3.923790436,-2.080673218,9.228309631,10.24143696
735.292104,-4.831353149,-0.772842865,11.26766876,12.28412059
735.492767,-2.354304199,-1.348845062,4.11524231,4.929234274
735.693431,-4.928201752,-5.489534454,11.00122284,13.24571874
735.8940953,0.424367523,-0.041164398,6.384373627,6.398594292
736.0947593,-5.737119598,-1.978136444,10.19170624,11.86163737
736.2954223,-3.510350189,-2.146835632,10.2970871,11.08879905
736.4960863,-3.28087738,-2.122436371,8.167315979,9.053946258
736.6967503,-3.31605423,-2.817291412,8.782087555,9.800939158
736.8974151,-0.664917297,-0.324525146,5.522615662,5.571957944
737.0980791,-5.491031342,-2.089953918,12.80242722,14.08621579
737.2987421,-2.762655029,-1.571282501,7.493417358,8.139563577
737.4994061,-4.452041931,-2.34607132,9.333989868,10.6041546
737.7000701,-5.178930359,-0.300574951,9.702822876,11.00256501
737.9007338,-0.552501068,-1.588197327,6.204148407,6.427992349
738.1013978,-5.702541504,-2.395767975,14.59120743,15.84809194
738.3020618,-1.809287567,-1.233135681,4.974904633,5.435422818
738.5027248,-5.369933167,-1.731150055,12.94178741,14.11817709
738.7033884,-1.833387451,-0.501457214,10.14455429,10.32108282
738.9040524,-1.787433014,-0.783171387,6.545887756,6.830587143
739.1047164,-5.003195801,-0.459394684,13.50282074,14.40726135
739.3053804,-2.391427002,-0.590971069,5.787714386,6.290135748
739.5060444,-5.229225769,-2.187101898,12.03182968,13.30011813
739.7067077,-0.775387573,-1.110540619,10.26999344,10.35892328
739.9073717,-3.352727966,-1.598076782,7.270081787,8.16386694
740.1080357,-5.438041534,2.122286682,12.54765701,13.83907847
740.3086997,-1.777254181,-0.579295349,5.237758026,5.561324003
740.5093637,-4.742438049,-2.855462036,11.2751532,12.56079065
740.7100312,-2.228415985,-0.887055359,8.619375916,8.946862365
740.9106953,-3.491788788,-1.99849411,7.391629028,8.41562519
741.1113593,-4.446503448,2.599045258,12.2889949,13.32463226
741.3120223,-1.559008026,-1.356479187,4.344116364,4.810601708
741.5126863,-4.364923096,-4.222718811,10.78791641,12.37994541
741.7133472,-0.489781494,-1.98681839,7.231911163,7.515841423
741.9140112,-3.647015991,-1.629810791,8.978628845,9.827145302
742.1146752,-3.986959076,-0.065264282,10.32163605,11.06509253
742.3153392,-3.792812805,-1.489402771,6.529721375,7.696818227
742.5160022,-5.015769653,-4.017944641,12.40500366,13.97089618
742.7166694,2.174078979,-1.062939606,7.732170868,8.102032236
742.9173334,-5.401517487,-2.808609467,9.063951416,10.91878627
743.1179974,-4.109703827,0.825084229,11.65087189,12.38197259
743.3186614,-2.313439178,-1.732197876,8.599467316,9.072119291
743.5193244,-4.301455078,-3.335214386,7.760611725,9.479096219
743.7199849,0.136815491,-0.306412811,6.120322723,6.129515277
743.9206489,-3.795656891,-2.06046524,10.05459137,10.94291259
744.1213129,-3.608695679,-2.634820862,10.49722092,11.40862009
744.3219769,-3.759881287,-2.31089447,8.350534973,9.445018522
744.5226399,-5.655090179,-2.598446503,8.942703552,10.89513267
744.7233029,-0.642014923,-0.104632416,6.468947754,6.501570283
744.9239669,-4.926555176,-2.113005981,11.76942535,12.93271485
745.1246309,-3.060834961,-2.112856293,6.845714264,7.790807157
745.3252939,-5.103786621,-1.839824066,10.31325348,11.65318788
745.5259579,-3.410058746,-0.692909088,8.955277405,9.607581228
745.7266224,-1.872306519,-0.114811249,7.476352844,7.708084404
745.9272864,-5.589975586,-2.192939758,14.17402496,15.39349848
746.1279494,-1.998344421,-1.646875305,5.607638855,6.176665138
746.3286134,-4.846022644,-2.378853149,11.8563945,13.02754652
746.5292774,-3.154989166,-1.120569763,11.5484848,12.02402322
746.7299414,-2.758164368,-0.96534256,6.939868469,7.530015359
746.9306054,-4.925357666,-1.239572296,13.55760681,14.47772047
747.1312684,-1.842518463,-1.894610138,4.628524933,5.329884137
747.3319324,-5.320086823,-3.801943817,9.978399811,11.93006971
747.5325964,-1.321751404,-1.419049072,10.0435144,10.22902286
747.7332602,-3.197650452,-2.402953033,6.517147522,7.646722403
747.9339242,-4.33513504,0.293090515,13.26721069,13.96059374
748.1345872,-1.308878174,-1.137035522,5.225932617,5.506031563
748.3352512,-4.132306824,-4.580624542,10.85108505,12.48215237
748.5359152,-1.443298645,-2.826572113,8.087382202,8.687828945
748.73658,-3.468886414,-1.44973526,7.22412735,8.143888582
748.937244,-3.380121002,-0.224084015,13.75759094,14.16851228
749.137908,-1.602417755,-1.204844513,5.157075806,5.533066404
749.338572,-3.948339386,-5.004542999,10.29109955,12.10543533
749.539235,-2.010768585,-0.615370331,9.399703217,9.632045032
749.7398983,-3.663032684,-2.097438354,7.77872406,8.850175371
749.9405623,-4.475243683,0.551453247,12.92098068,13.68516162
750.1412262,-1.209035797,-1.479822693,4.666545868,5.04264743
750.3418902,-5.497168579,-5.794749756,11.81582886,14.26225083
750.5425542,-0.723595276,-1.158890076,8.014932861,8.130545191
750.7432188,-4.265080719,-2.559976501,8.890462189,10.18747815
750.9438828,-3.926634521,0.557291107,11.49594406,12.160829
751.1445468,-1.687141571,-1.488504639,5.816005554,6.236025445
751.3452118,-5.895490265,-6.344855804,11.59773239,14.47485396
751.5458758,0.368982697,-0.670904846,6.665638733,6.709471012
751.7465395,-4.709656219,-3.088527374,9.722731476,11.23616351
751.9472035,-3.960015106,-1.419647827,10.26176056,11.0905748
752.1478675,-2.497855682,-1.209035797,8.978628845,9.397703257
752.3485315,-5.140460358,-4.994813232,7.198979645,10.15863179
752.5491965,-0.242495728,0.234711914,7.120692444,7.128685344
752.7498604,-4.301006012,-2.227068787,11.24267075,12.24157398
752.9505244,-3.362906799,-3.21890625,8.327782288,9.54056903
753.1511884,-4.29427002,-2.588117981,8.930279388,10.24153307
753.3518534,-5.223387909,-2.630779266,8.742569733,10.51842699
753.5525174,-1.152154083,-0.636925507,6.127507782,6.267334741
753.7531817,-4.436174927,-0.618064728,11.99755096,12.80636096
753.9538457,-2.214045868,-2.66550705,6.364914093,7.247003405
754.1545107,-4.308939514,-3.257376251,10.33855087,11.66460861
754.3551748,-4.611460419,-0.374521179,11.12426697,12.04803506
754.5558388,-2.536175995,-1.261726227,7.688162384,8.193410925
754.7565029,-5.14135849,-2.271077271,13.84485947,14.94227201
754.9571679,-1.529219971,-2.04878952,4.977449341,5.595628129
755.1578319,-4.841981049,-4.419559479,10.38555313,12.28157157
755.3584959,-1.76677597,-1.528920593,10.88940536,11.13724583
755.5591609,-3.827690277,-1.863774261,7.892637177,8.967641215
755.7598251,-3.12175827,0.267643433,13.00794983,13.37997633
755.9604891,-1.682650909,-1.348246307,5.717959442,6.110985385
756.1611531,-2.943778381,-5.665119324,10.70094727,12.46072552
756.3618181,0.29488678,-2.15881073,7.022796021,7.353032431
756.5624821,-3.941902771,-2.865042114,9.120084686,10.34035824
756.7631459,-3.500021667,-1.35617981,11.09298203,11.71083368
756.9638099,-2.474953308,-1.788929901,7.54476059,8.139353563
757.1644749,-4.789290619,-5.328918457,9.856553192,12.18549619
757.3651389,0.284109192,-1.025068359,6.477480011,6.564238758
757.5658029,-3.710783386,-1.385518799,11.45373184,12.1193048
757.7664661,-3.123255157,-3.50436264,8.825646973,9.996365579
757.9671301,-3.464695129,-2.794838104,9.136550446,10.16325668
758.1677951,-4.218527527,-1.190175018,10.63373703,11.50168919
758.3684591,-1.61349472,-0.720900879,6.611601105,6.843707508
758.5691231,-4.915178833,-1.609453125,12.89673111,13.89514288
758.7697874,-2.631078644,-2.154918823,6.416856079,7.262388857
758.9704514,-5.238057404,-2.781216431,10.93236603,12.43740476
759.1711164,-3.951782227,-1.086889801,10.26340714,11.05149032
759.3717804,-1.66738266,-0.843495941,7.251221008,7.488114345
759.5724444,-4.612957306,-1.645079041,13.66208954,14.51338523
759.773108,-2.521207123,-1.72471344,5.716761932,6.481704158
759.973772,-4.390968933,-2.66311203,11.09702362,12.22770245
760.174436,-2.139351196,-0.417930908,11.89202042,12.09014637
760.375101,-2.661465454,-1.466201019,7.183412018,7.799650762
760.575765,-4.253404999,-1.261277161,13.43336517,14.14699876
760.7764294,-1.644929352,-0.968635712,5.810317383,6.115867543
760.9770934,-3.979025574,-4.10236908,10.66412384,12.09899227
761.1777574,-1.412013702,-2.842439117,8.236771545,8.827097389
761.3784214,-2.627935181,-2.019151154,7.398514709,8.10685109
761.5790854,-4.001927948,1.366059265,14.00128418,14.62591891
761.7797496,-0.484093323,-2.076182556,3.954027557,4.492128034
761.9804146,-5.078339539,-4.679718475,12.38075409,14.17647239
762.1810786,-0.269439697,-1.698368225,6.470294952,6.694906209
762.3817426,-3.879482574,-1.247206421,9.269024963,10.12525223
762.5824066,-3.922443237,0.235909424,11.87510559,12.50837108
762.78307,-1.536554718,-1.064286804,5.559738464,5.865526285
762.983734,-6.04353241,-5.167853394,12.64420624,14.93676485
763.184398,1.044976959,-1.516795807,6.130800934,6.401512826
763.385062,-4.173770599,-1.416204987,9.633816376,10.59416894
763.585726,-3.726051636,-1.434317322,10.73702225,11.45532076
763.786394,-2.68302063,-1.373992767,7.584428101,8.161495294
763.987058,-4.573140106,-3.013832703,9.532028046,10.99346882
764.187722,0.072748718,-1.185235291,6.143075409,6.256792353
764.388387,-4.348457336,-1.28941864,10.85362976,11.76320367
764.589051,-2.824476471,-1.219963074,8.686885529,9.215636572
764.789711,-2.374362488,-3.287613373,8.578061829,9.488368861
764.990375,-3.455115051,-1.397643585,9.603878632,10.30173346
765.191039,-1.223256226,-0.345780945,6.869215393,6.985845716
765.391703,-3.651057587,-0.432750092,13.83632721,14.31647459
765.592367,-2.370021515,-1.981429596,6.188880157,6.917029914
765.7930324,-3.4810112,-3.282523956,10.49287994,11.53225615
765.9936964,-3.521427155,-0.32766861,11.92076065,12.43432147
766.1943604,-1.617386627,-1.683549042,7.607779541,7.957926013
766.3950244,-5.688470764,-0.710123291,14.24707306,15.3571503
766.5956884,-1.994602203,-1.535057831,4.579277344,5.225382425
766.7963518,-3.771107941,-3.588487701,11.04508163,12.21033691
766.9970157,-1.728605347,-0.290695496,10.84360062,10.9843641
767.1976797,-2.627336426,-1.325493622,7.213200073,7.790384158
767.3983437,-3.560346222,-0.64934967,13.20823334,13.69507751
767.5990077,-2.386636963,-0.959804077,5.501808929,6.073480168
767.7996715,-5.637277222,-3.611689453,11.46929947,13.2803624
768.0003355,-2.16000824,-0.761017456,11.6321608,11.85546068
768.2009995,-3.153641968,-1.278191986,7.775281219,8.487298184
768.4016635,-4.348906403,-1.575922852,13.29175964,14.07364182
768.6023275,-1.331181793,-1.374142456,5.746400299,6.056519533
768.8029912,-5.418881378,-3.725452881,10.99553467,12.81191075
769.0036552,0.276924133,-0.327818298,10.13497421,10.14405511
769.2043192,-3.907324677,-1.788630524,7.824528809,8.926905195
769.4049832,-2.951113129,1.331331482,12.71964935,13.12520445
769.6056472,-1.082249451,-1.056952057,5.58249115,5.783823905
769.8063114,-4.108805695,-4.042194214,12.91768753,14.14525608
770.0069754,-0.923729095,-1.096469879,7.675139465,7.807899042
770.2076394,-2.330503693,-1.850751343,9.601483612,10.05211498
770.4083034,-4.529730377,1.315015411,12.2360051,13.1136396
770.6089674,-1.94236084,-1.420845337,4.704267426,5.284098704
770.8096306,-2.904559937,-4.040397949,12.3580014,13.32221763
771.0102946,-0.460592194,0.143401794,8.000413055,8.014943437
771.2109586,-5.205874329,-2.230062561,9.34312088,10.92557616
771.4116226,-3.528612213,0.47855484,12.00922668,12.52603866
771.6122866,-1.561253357,-1.527274017,5.590274963,6.00177075
771.8129511,-3.000510406,-3.748205566,12.24992615,13.15723369
772.0136151,-0.238005066,-0.121996307,6.415059814,6.420632518
772.2142791,-4.471202087,-1.305734711,10.37941589,11.37668078
772.4149431,-4.13275589,-0.379909973,11.29311584,12.03156134
772.6156061,-2.196532288,-1.844314728,6.555168457,7.155171864
772.8162691,-4.127067719,-3.291804657,11.26332779,12.4391004
773.0169331,0.6728508,-1.476379852,7.170389099,7.351660051
773.2175971,-4.384232941,-2.683469696,9.60178299,10.89113147
773.4182611,-4.215384064,-0.420625305,11.58890076,12.33892253
773.6189251,-2.487826538,-2.268682251,7.025340729,7.790482167
773.8195931,-3.828438721,-3.166066132,8.767118683,10.07686895
774.0202571,-0.245938568,-1.035845947,5.608087921,5.708249534
774.2209201,-4.740791473,-2.20087326,11.69203629,12.80713315
774.4215841,-3.250640259,-2.0968396,9.26124115,10.03663221
774.6222481,-3.743415527,-2.218386841,7.735164642,8.875087156
774.8229119,-3.988605652,-3.323987732,8.315208435,9.80308935
775.0235759,-0.40371048,0.185015259,6.183641052,6.199566877
775.2242399,-4.125870209,-0.668509827,12.51128265,13.19097813
775.4249039,-2.512525177,-1.98562088,6.875502319,7.584721827
775.6255669,-4.355642395,-2.291285248,10.10743149,11.24196513
775.826227,-2.189496918,-1.303040314,10.37238052,10.68073446
776.026891,-1.753303986,0.027243347,7.066056061,7.280382223
776.227555,-3.77470047,-1.408121796,14.48657501,15.03635681
776.428219,-2.517464905,-1.264570313,7.108867035,7.646748207
776.628883,-4.481979675,-2.670746155,10.94703552,12.12677259
776.8295474,-3.385509796,0.075742493,11.14492401,11.64803609
777.0302104,-1.762584686,-1.116977234,7.101831665,7.402050791
777.2308744,-5.075645142,-1.573677521,13.33067871,14.35080588
777.4315384,-2.744093628,-1.07880661,5.701044617,6.418394134
777.6322024,-4.877008209,-3.861819305,12.12269073,13.62565551
777.8328699,-2.582130432,-2.619552612,11.19626724,11.78498424
778.0335339,-3.202141113,-1.608255615,7.567662964,8.373154517
778.2341979,-5.820945282,-0.747994537,14.339431,15.49394014
778.4348619,-1.399140472,-1.374591522,4.610711975,5.010564921
778.6355259,-4.652624817,-3.777245178,12.26998444,13.65529263
778.8361899,-2.315834198,-0.196391602,8.737180939,9.041017003
779.0368539,-4.151766357,-2.388882294,8.094417572,9.405504682
779.2375179,-4.227209473,-0.364342346,13.00001633,13.67488463
779.4381819,-1.705852661,-0.940344543,5.918093262,6.23041002
779.6388459,-5.166206818,-5.944139099,15.19879395,17.11799696
779.8395065,-1.540895691,-1.444196777,4.974455566,5.40419023
780.0401705,-1.977238312,-2.97431488,10.18497025,10.79303661
780.2408345,-4.928650818,1.657353516,11.46061752,12.58507742
780.4414985,-2.599644012,-1.388961639,5.639971619,6.363697297
780.6421625,-4.102818146,-6.032156067,11.25808868,13.41508794
780.8428271,-1.143472137,-1.140029297,5.681285706,5.906285008
781.0434911,-5.285059662,-3.366649017,9.407337341,11.3032817
781.2441551,-3.584895172,-2.358345795,11.06244553,11.86553704
781.4448191,-2.860701141,-2.01960022,6.265969849,7.178075941
781.6454831,-4.901856537,-4.033362579,9.272318115,11.23708567
781.8461468,0.814606018,-1.713337097,5.631289673,5.942266432
782.0468108,-4.108656006,-2.766696625,9.815089417,10.99416412
782.2474747,-4.163741455,-1.466051331,8.896300049,9.931274035
782.4481387,-4.218527527,-2.838696899,8.99449585,10.33223742
782.6488027,-3.150498505,-2.176174622,7.841443634,8.726374681
782.8494667,-1.414259033,-1.347797241,6.472240906,6.760664787
783.0501307,-3.725452881,-3.561843109,12.61965729,13.6316351
783.2507947,-2.964884491,-1.925296326,6.739884338,7.610738918
783.4514588,-3.571722565,-2.153571625,9.968370667,10.80571546
783.6521228,-3.737427979,-1.391506348,10.35666321,11.09797867
783.8527863,-1.360520782,-1.92245224,6.232738953,6.662872824
784.0534502,-2.707120514,-3.209326172,15.47661621,16.03601962
784.2541142,-2.572250977,-1.627715149,5.734425201,6.492269563
784.4547782,-3.860472107,-1.666484528,13.33337311,13.9806743
784.6554422,-1.610650635,0.997675323,11.9439624,12.09329522
784.856106,-1.513652344,-1.780397644,6.597680054,6.999310057
785.05677,-3.762126617,-2.127675476,16.04363708,16.61562188
785.257434,-0.889151001,-1.067729645,4.608766022,4.813663921
785.458098,-4.998705139,-2.762205963,12.13915649,13.41551174
785.658762,-2.177222443,-0.07604187,10.23706192,10.46630387
785.8594262,-2.845283203,-2.507884827,7.537276154,8.437751752
786.0600912,-3.345991974,-0.677940216,13.49578537,13.92090112
786.2607552,-1.531165924,-0.925375671,4.410727844,4.759759378
786.4614193,-5.002447357,-2.163301392,12.37371872,13.52084566
786.6620833,-1.942809906,-1.086291046,8.446784821,8.735142378
786.8627476,-1.852547607,-2.412533112,6.893165588,7.534452899
787.0634116,-5.557343445,2.419418793,11.96476913,13.41243281
787.2640756,-1.225651245,-0.61432251,5.245841217,5.422034968
787.4647396,-4.163292389,-6.161187744,9.360484772,11.95457708
787.6654036,-0.637973328,-1.226549377,8.95587616,9.06196177
787.8660669,-4.748275909,-1.403331757,8.108787689,9.50094216
788.0667309,-3.890260162,1.995799713,13.13772995,13.84620124
788.2673949,-1.028960266,-1.640289001,4.621040497,5.010321598
788.4680589,-5.832471313,-5.026996307,13.64652191,15.66894935
788.6687229,-0.36269577,-1.17475708,6.241420898,6.361362845
788.8693869,-5.086871796,-2.394720154,8.857830048,10.49152527
789.0700509,-4.263434143,-0.784518585,12.40335709,13.139087
789.2707149,-0.872685242,-2.016157379,5.304070129,5.741047818
789.4713789,-5.911057892,-4.827012177,10.91919342,13.32176553
789.6720429,0.210462341,-1.510508881,5.727090454,5.926676686
789.8727084,-5.989195404,-2.894979858,9.301806793,11.43568885
790.0733724,-2.741848297,-3.779490509,10.40216858,11.4020784
790.2740364,-3.235072632,-2.478695526,8.041577454,9.015353259
790.4747014,-3.99818573,-4.073179779,7.923922119,9.765491508
790.6753654,-1.200353851,-1.151705017,6.448590088,6.659698787
790.8760299,-4.472998352,-3.879033508,13.0030101,14.28750807
791.0766949,-3.294798431,-2.570155334,6.6156427,7.824840157
791.2773599,-4.144281921,-4.545896759,10.52670959,12.19228711
791.4780239,-3.692072296,0.410895538,10.61128372,11.24275657
791.6786889,-1.749711456,-1.478176117,5.682483215,6.126753651
791.8793534,-5.648503876,-2.113305359,13.47797241,14.76575077
792.0800184,-3.247347107,-1.955982513,7.443571014,8.353315526
792.2806834,-4.007167053,-3.07730072,9.615105286,10.86174098
792.4813484,-3.939058685,-2.298769684,9.818532257,10.82608429
792.6820134,-1.09287735,-1.002914429,7.043303375,7.197801101
792.8826771,-5.393434296,-2.2746698,13.6625386,14.86365424
793.0833421,-2.685565338,-2.374811554,5.576503601,6.629433122
793.2840071,-5.859864349,-3.747307434,11.43906235,13.38777318
793.4846721,-2.478845215,-0.504001923,12.89912613,13.14481443
793.6853371,-3.01068924,-1.958527222,7.266339569,8.105539421
793.8860019,-4.195325775,-1.264121246,13.75339966,14.43449906
794.0866669,-1.727258148,-0.936302948,4.121379547,4.565725933
794.2873329,-5.789959717,-3.319796448,12.68731659,14.33571359
794.4879979,-0.757574615,-0.787063293,10.42072998,10.47783381
794.6886629,-3.551065521,-2.314337311,7.872728577,8.941257113
794.889329,-2.58707016,-0.867146759,13.23038727,13.50881278
795.089994,-1.996398468,-1.363514557,3.375780029,4.152188531
795.290659,-6.360872498,-3.350782013,13.27634171,15.09800279
795.491325,0.720451813,-3.079096985,6.603517914,7.32163492
795.69199,-3.169359283,-3.857029266,8.421786804,9.790199487
795.8926567,-4.819976807,3.406765594,12.38314911,13.71789379
796.0933227,-0.987346802,-1.795665894,4.430037689,4.881035099
796.2939877,-4.589456177,-3.240611115,13.89680145,14.98952164
796.4946537,-0.56746994,-1.548978882,6.975494385,7.167906223
796.6953187,-2.974165192,-2.621797943,9.936636658,10.6984219
796.8959881,-3.391497345,1.393901367,11.28024261,11.86124314
797.0966541,-0.570463715,-1.01803299,4.706961823,4.849464879
797.2973201,-5.84579361,-2.872077484,13.4064212,14.9048402
797.4979861,-0.179327087,-1.074465637,7.056625671,7.140210114
797.6986511,-3.394191742,-4.767286377,9.453441467,11.11823334
797.8993146,-3.532953186,0.449215851,12.42581039,12.9261099
798.0999806,-1.592388611,-0.282312927,4.963977356,5.220773244
798.3006466,-5.810317383,-6.783743134,13.02770874,15.79557387
798.5013126,0.404159546,-3.082240448,6.865473175,7.536462899
798.7019786,-0.382155304,-3.25872345,10.03183868,10.5547671
798.9026439,-3.754342804,-0.319735107,10.86515579,11.49995351
799.1033099,-0.58034317,-1.251397705,5.836812286,5.997597192
799.3039759,-4.919968872,-5.854475555,12.8491301,14.95262927
799.5046419,0.152233429,-0.800086212,6.436465302,6.487788417
799.7053079,-3.416944427,-2.814297638,8.922046509,9.959854131
799.9059745,-4.187541962,0.339194641,11.98901871,12.70382345
800.1066405,-1.202449493,-1.675166473,5.170248413,5.566285669
800.3073065,-5.11321701,-5.85163147,12.37341934,14.61123148
800.5079725,-1.374292145,-1.032403107,7.563920746,7.75676686
800.7086395,-3.371439056,-1.20873642,8.275091858,9.016916895
800.9093057,-3.950285339,0.436941376,12.54151978,13.15619209
801.1099718,-1.018781433,-1.19346817,4.884792023,5.130640797
801.3106388,-4.295617218,-3.472029877,10.60185333,11.95435539
801.5113047,-0.019160156,-1.147962799,11.75520493,11.81114002
801.7119717,-2.153871002,-2.05821991,6.400090942,7.059503776
801.9126382,-4.590953064,1.50586853,14.90884689,15.67221126
802.1133052,-1.207239532,-1.253643036,5.174739075,5.459576233
802.3139712,-5.138813782,-2.576741638,12.7853627,14.01829176
802.5146382,-0.962049408,-0.797242126,11.46914978,11.53700701
802.7153042,-1.975292358,-1.429976349,7.40315506,7.794441423
802.9159705,-3.135978699,-1.286724243,15.17828659,15.5521833
803.1166375,-2.189945984,-0.506995697,6.656058655,7.025384322
803.3173035,-1.253343658,-1.324146423,11.17381393,11.32158787
803.5179705,-0.245489502,0.949625244,10.05878265,10.10649107
803.7186375,1.809437256,2.331551514,7.881859589,8.41628815
803.9193043,2.467917938,0.822689209,13.03249878,13.28959973
804.1199713,1.506916351,1.411265259,6.198909302,6.533677605
804.3206383,2.322869568,0.431552582,11.44609772,11.68739122
804.5213043,2.68062561,1.077010345,10.83596649,11.21444937
804.7219713,2.357447662,1.566941528,7.081473999,7.626279514
804.922638,1.86048111,1.4040802,12.93609924,13.14440926
805.123305,2.578088837,1.844614105,6.673871613,7.388484658
805.323972,2.62329483,0.829275513,11.77765823,12.09473469
805.524639,1.598974915,-0.437540131,9.131011963,9.280277022
805.725306,0.857117615,1.503623199,8.098459167,8.281338915
805.9259744,-0.126187592,-0.064216461,15.33590881,15.3365624
806.1266414,-1.016236725,-0.492775269,6.787036285,6.880365258
806.3273084,-0.2866539,-2.751278687,11.99964661,12.31435031
806.5279754,0.509989471,0.746347961,12.33524872,12.3683259
806.7286424,-0.925076294,-1.512005768,5.695805511,5.965243333
806.9293102,-1.976938934,-1.072220306,14.39960587,14.57417555
807.1299772,-1.4730867,-0.873134308,6.85903656,7.06956367
807.3306442,-2.6303302,-2.734663239,11.87735092,12.46870021
807.5313112,0.105680237,-2.130220184,10.88790848,11.09484373
807.7319782,0.347128143,-0.590971069,6.503226471,6.539243021
807.9326441,-3.147205353,-4.456083527,16.76663361,17.6318344
808.1333111,-2.15057785,-2.165097656,6.269562378,6.972807567
808.3339781,-1.950743408,-2.161654816,10.24544449,10.65116351
808.5346451,-1.57727005,-0.743653564,9.986782379,10.13788063
808.7353121,-0.442629547,0.22109024,6.303541718,6.3229297
808.9359798,-2.286644897,-3.229683838,14.12747177,14.67123244
809.1366468,-2.399360504,-1.579814758,7.591014404,8.116418249
809.3373138,-2.058519287,-2.011666718,9.816286926,10.22955491
809.5379808,-0.910257111,-1.339264984,10.30966095,10.43605805
809.7386468,-0.142952728,-0.007634125,6.433471527,6.435064075
809.9393167,-1.224902802,-2.159259796,12.51771927,12.76150796
810.1399837,-3.152893524,-1.742526398,8.261021118,9.012303021
810.3406507,-1.722767487,-2.973716125,7.964038696,8.673916518
810.5413177,-1.686842194,-0.78751236,9.204808502,9.391172018
810.7419837,-0.816252594,-0.182171173,5.831423492,5.89109112
810.9426474,-2.393822021,-2.033820648,13.31825455,13.68366597
811.1433144,-2.768193512,-1.82410675,9.100026398,9.685078275
811.3439814,-2.214195557,-3.100203094,7.092550964,8.050975119
811.5446474,-3.146606598,-1.143921204,10.82204544,11.32812237
811.7453144,-1.685494995,-0.257314911,5.262905731,5.532203998
811.9459815,-4.724924469,-2.735411682,11.09148514,12.36237966
812.1466475,-2.990331573,-3.425027618,9.491612091,10.52442859
812.3473145,-2.406994629,-2.694396973,6.47643219,7.416034796
812.5479815,-3.485501862,-4.381837921,10.42507095,11.83348348
812.7486475,-0.966839447,-1.875150604,4.958289185,5.388469165
812.9493177,-4.011957092,-4.295617218,10.86919739,12.35668155
813.1499837,-2.017504578,-2.36118988,11.64712967,12.05409357
813.3506507,-0.878523102,-2.150727539,5.815257111,6.262159935
813.5513168,-5.695805511,-5.232069855,11.948004,14.23276343
813.7519838,0.72658905,-2.133663025,5.642815704,6.076332662
813.9526511,-3.517834625,-3.041974182,10.29693741,11.29848164
814.1533171,-2.285896454,0.527952118,11.6826059,11.91584393
814.3539841,-1.787133636,-1.280886383,4.053720245,4.611633592
814.5546501,-3.23881485,-4.767286377,14.15067352,15.27934888
814.7553161,-1.04602478,-0.728535004,6.731950836,6.851575961
814.9559794,-2.355651398,-1.153052216,9.969717865,10.30892318
815.1566454,-3.932921448,0.306113434,11.98976715,12.62204789
815.3573124,-1.390159149,-1.536255341,4.996459808,5.408995614
815.5579784,-3.729644165,-4.087400208,12.01790863,13.23054095
815.7586454,-0.878523102,-1.762434998,10.538535,10.72094679
815.9593149,-2.530637512,-1.521286469,6.629264374,7.257105819
816.1599809,-4.338577881,-3.633843384,15.49457886,16.49575854
816.3606479,-2.7789711,-2.864293671,7.532935181,8.524785689
816.5613139,-3.639381866,-2.412383423,6.790329437,8.072996223
816.7619809,-4.283791809,-4.978646851,11.95084808,13.63673592
816.9626472,-0.666863251,-2.014211426,5.897885284,6.267918721
817.1633132,-2.14129715,-2.870281219,8.430169373,9.159226136
817.3639802,-4.585713959,-0.656085663,15.11407013,15.80804658
817.5646462,-2.265389099,-2.501448212,5.974226532,6.861531431
817.7653123,-3.190914459,-3.607797546,8.86456604,10.08854149
817.9659753,-0.900078278,-0.394429779,9.905351715,9.953979524
818.1666422,-1.425934753,-1.314716034,6.545139313,6.826464443
818.3673082,-3.35108139,-2.537672882,12.54855515,13.23388705
818.5679742,-3.145259399,-1.783541107,10.83671494,11.4240127
818.7686413,-1.746268616,-2.254312134,6.159541168,6.787586071
818.9693099,-3.789519653,-3.885919189,13.88273071,14.9060739
819.1699759,-1.235081635,-2.13306427,6.608307953,7.053022318
819.3706419,-3.061583405,-2.321821747,8.514144745,9.341028311
819.5713079,-0.534538422,2.602338409,13.07111847,13.33836701
819.7719749,-1.561253357,-1.024319916,5.658233643,5.958384956
819.9726378,-2.338886261,-2.443967743,12.60813126,13.05405458
820.1733037,-0.117805023,0.513731689,10.21415955,10.22774919
820.3739697,-1.313518524,-0.366587677,6.652466125,6.790804296
820.5746358,-2.644700317,-3.719615021,15.71507034,16.36439463
820.7753028,-2.93225235,-1.305585022,6.99240921,7.693922449
820.9759724,-2.996019745,-2.772684174,9.615254974,10.44591021
821.1766384,-1.212478638,-1.21337677,9.142088928,9.30162231
821.3773044,-0.929716644,-0.607586517,6.271059265,6.368651248
821.5779704,-2.808459778,-2.104174347,13.92643982,14.36177991
821.7786374,-3.907474365,-2.829565887,10.95017899,11.96583548
821.9793035,-1.914518738,-2.227068787,4.841681671,5.662781894
822.1799695,-4.093238068,-4.645739136,12.51158203,13.95984151
822.3806355,-0.355959778,-0.397423553,7.937693481,7.955603726
822.5813015,-2.511477356,-2.391576691,8.121062164,8.830561038
822.7819634,-2.729573822,1.213825836,13.64292938,13.96615439
822.9826304,-1.301543427,-1.597328339,4.078718262,4.569618777
823.1832964,-4.020788727,-2.482737122,12.04425385,12.93811332
823.3839624,-1.64283371,-0.047900391,11.81747543,11.93121631
823.5846284,-1.842967529,-1.899849243,5.600154419,6.194165479
823.7852982,-5.232967987,-3.029250641,16.0699823,17.16987608
823.9859642,-2.525548096,-2.208208008,6.761439514,7.547956021
824.1866312,-3.596121826,-2.607128448,7.283553772,8.531082375
824.3872972,-3.983665924,-2.783461761,10.24005569,11.33472515
824.5879632,-2.076481934,-0.976569214,5.798192596,6.235743904
824.7886295,-3.95253067,-2.382894745,10.31310379,11.29870771
824.9892955,-3.507506104,-0.108524323,12.3606958,12.8491703
825.1899615,-2.728076935,-2.115101624,5.441035309,6.443673166
825.3906275,-4.34681076,-3.494483185,13.10779221,14.24501292
825.5912945,-0.548609161,0.147593079,9.836045837,9.852438959
825.7919598,-2.437531128,-1.733096008,5.99907486,6.703288666
825.9926258,-5.58368866,-1.857487335,16.49913986,17.5171189
826.1932918,-2.662064209,-2.672841797,7.14569046,8.08031938
826.3939578,-3.075504456,-2.799628143,7.162455597,8.282355678
826.5946238,-4.505780182,-4.724026337,9.615853729,11.62252652
826.7952902,-0.564775543,-0.455802155,7.111262054,7.148200824
826.9959563,-3.168311462,-3.368145905,9.890981598,10.91852194
827.1966222,-3.259920959,-0.688119049,10.77504318,11.27839297
827.3972892,-1.735041962,-2.089355164,4.611011353,5.351373777
827.5979552,-4.692891083,-4.838538208,11.85325104,13.63577056
827.7986174,-1.515149231,-0.299976196,9.687404938,9.809764387
827.9992834,-2.85261795,-2.58467514,7.934100952,8.818612854
828.1999494,-3.009042664,0.041463776,15.49981796,15.78924995
828.4006154,-2.518662415,-1.38776413,5.872737579,6.539005759
828.6012814,-4.225712585,-4.105662231,11.87046524,13.25220941
828.8019474,-1.187779999,-0.442479858,11.00810852,11.08084216
829.0026134,-2.409838715,-0.981359253,6.474336548,6.977637304
829.2032794,-3.56408844,-2.837798767,14.35649551,15.06203146
829.4039464,-3.078947296,-3.099005585,7.815996552,8.953968626
829.6046124,-3.30782135,-2.922372894,7.436385956,8.647646009
829.8052785,-3.773053894,-1.655557251,9.882748718,10.70726518
830.0059445,-1.470242615,-0.760867767,6.278843079,6.493412316
830.2066105,-3.562142487,-3.133583679,11.39804764,12.34599918
830.4072765,-4.159101105,-2.611319733,10.26759842,11.38159435
830.6079425,-2.489473114,-2.293680267,6.874155121,7.662405248
830.8086084,-5.569468231,-5.422024841,11.53621033,13.91048089
831.0092754,-1.198557587,-2.386187897,5.581593018,6.187456148
831.2099414,-2.764600983,-2.369123383,8.543483734,9.286919754
831.4106074,-3.776496735,-1.294957123,10.15727783,10.91371314
831.6112734,-2.976859589,-1.739682312,5.272036743,6.299409415
831.8119395,-5.477559357,-5.182971954,11.84920944,14.04530595
832.0126055,-0.793200531,-2.587519226,9.357041931,9.740567567
832.2132715,-3.096161499,-3.107537842,7.554640045,8.735879674
832.4139385,-5.677543488,-1.691183167,13.05061111,14.33223817
832.6146045,-1.576820984,-1.720671844,4.887187042,5.415872339
832.8152737,-4.839885406,-4.118984528,12.28345642,13.83017809
833.0159397,-3.132236481,-0.935554504,10.5106929,11.00730816
833.2166057,-2.15761322,-1.757046204,5.927823029,6.548403777
833.4172717,-4.949607239,-2.048939209,16.54554337,17.39114053
833.6179387,-2.903811493,-2.396965485,5.803282013,6.917777594
833.8186025,-4.578678589,-3.348386993,8.450826416,10.17803813
834.0192685,-3.744163971,-1.642384644,9.27291687,10.13425767
834.2199345,-1.368005219,-0.796194305,6.583309937,6.770918207
834.4206005,-4.280798035,-2.847229156,11.45358215,12.55454061
834.6212665,-3.136727142,-3.668421478,8.37777832,9.668688789
834.8219326,-3.452420654,-1.773511963,7.88994278,8.792937514
835.0225986,-4.479734344,-5.633684692,9.955198059,12.28464047
835.2232646,-0.862805786,-1.61124939,6.116131439,6.383386421
835.4239306,-3.717220001,-3.620820465,10.10009674,11.35517589
835.6245966,-2.866239624,-1.035097504,10.39348663,10.83103508
835.8252635,-2.657573547,-1.986219635,6.058501282,6.907474457
836.0259295,-5.447172546,-5.619763641,12.40739868,14.66959352
836.2265955,-0.790805511,-2.368524628,7.058272247,7.486954614
836.4272615,-2.571352844,-2.631976776,7.260801086,8.139925652
836.6279285,-3.616030426,0.124241638,12.09005859,12.61985059
836.8285941,-2.699636078,-1.440155182,4.829257507,5.716975597
837.0292601,-5.10513382,-5.056035919,12.03182968,14.01395076
837.2299261,-0.054187317,-2.776426392,9.327403564,9.732005807
837.4305931,-2.184706879,-2.847528534,6.994654541,7.861714511
837.6312591,-3.435954895,-3.292403412,15.70354431,16.40874798
837.8319252,-2.297272797,-2.745141449,5.097350006,6.228662855
838.0325912,-3.536845093,-2.823877716,8.829239502,9.921644458
838.2332582,-2.225122833,-0.602497101,11.07412125,11.31151342
838.4339242,-0.299377441,-1.190175018,5.565127258,5.698840656
838.6345903,-4.03800293,-3.601959686,12.65199005,13.760539
838.8352614,-3.100053406,-3.807631989,8.068222046,9.444818657
839.0359274,-2.909050598,-2.209854584,6.99240921,7.889221712
839.2365934,-4.662055206,-3.417692871,9.784852295,11.3648017
839.4372594,0.772693176,-2.276316376,5.778283997,6.258373346
839.6379264,-5.818699951,-2.496807861,10.21116577,12.01495839
839.8385885,-2.417772217,-1.668729858,11.22485779,11.60291835
840.0392545,-2.202220459,-2.288141785,7.017706604,7.702828945
840.2399205,-4.97640152,-6.264772339,11.24611359,13.80170335
840.4405875,-0.843196564,-1.795815582,6.604565735,6.896101986
840.6412535,-2.318827972,-2.623893585,8.294551392,9.003408438
840.84192,-2.912643127,-0.600551147,11.40074203,11.78223538
841.042586,-1.535506897,-0.971330109,4.886887665,5.213725603
841.243253,-3.893852692,-3.525618439,12.88565414,13.91517721
841.443919,-1.21457428,-2.85037262,8.18707489,8.753742629
841.644585,-1.945354614,-1.980531464,8.053253174,8.518321204
841.8452552,-4.122427368,-1.471290436,12.22747284,12.987309
842.0459212,-1.367256775,-2.080972595,5.608087921,6.135999361
842.2465873,-2.942580872,-3.870351563,11.66733765,12.63982481
842.4472532,-2.970722351,-0.775387573,11.0959758,11.51290998
842.6479202,-0.778980103,-1.774859161,6.101461945,6.401935091
842.8485835,-4.314477997,-3.614234161,14.32565964,15.39161892
843.0492495,-1.358574829,-1.995650024,6.040838013,6.50538765
843.2499155,-3.415896606,-2.478545837,9.644893341,10.52784435
843.4505825,-3.231330414,-0.703387299,9.959539032,10.49422068
843.6512485,-0.45400589,-1.450783081,6.722969513,6.89269265
843.8519172,-4.496499481,-2.689457245,13.93631927,14.88867633
844.0525842,-2.648143158,-1.881287842,6.888525238,7.616015105
844.2532502,-2.844983826,-1.654060364,9.176517334,9.748759872
844.4539162,-3.557352448,-2.615061951,10.16356476,11.08112603
844.6545822,-0.199834442,-0.704584808,6.286776581,6.329291693
844.8552456,-4.067940674,-2.82342865,11.50986511,12.52983981
845.0559116,-2.788850555,-2.705473938,9.450298004,10.21789651
845.2565776,-2.926264801,-1.159638519,7.119045868,7.783868013
845.4572446,-4.08126297,-5.483397217,9.898316345,12.02917366
845.6579106,-0.175435181,-0.787362671,6.161038055,6.213622727
845.8585764,-2.940335541,-3.589984589,10.71097641,11.67298497
846.0592424,-1.871857452,1.490899658,11.51884644,11.76479729
846.2599094,-1.237776031,-0.704884186,5.455106049,5.638007912
846.4605754,-4.141587524,-4.730912018,14.30185913,15.62297828
846.6612414,-0.713266754,-2.397863617,7.1889505,7.611800621
846.8619089,-2.13890213,-1.818568268,7.557783508,8.062393219
847.0625749,-3.016676788,1.016536102,13.83722534,14.19867915
847.2632409,-1.712139587,-1.490300903,4.201163635,4.775164357
847.4639069,-4.505630493,-2.807861023,13.10509781,14.13960319
847.6645739,-0.61192749,-2.680775299,9.037157135,9.446227847
847.8652393,-2.764151917,-2.782114563,7.686964874,8.629607537
848.0659053,-2.594853973,-1.095871124,14.26578415,14.54121034
848.2665723,-1.664688263,-0.905467072,4.882995758,5.237814926
848.4672383,-4.815037079,-2.12842392,13.04402481,14.06631984
848.6679043,-1.762734375,0.156424713,9.372010803,9.537624844
848.8685722,-1.632505188,-0.651894379,5.329068146,5.61150664
849.0692382,-3.476071472,-2.786754913,14.66665054,15.32839568
849.2699042,-4.20879776,-1.36785553,7.782915344,8.953143503
849.4705702,-3.398383026,-3.471281433,8.198002167,9.529220404
849.6712372,-3.667523346,-1.29645401,9.974358215,10.70604233
849.8719034,-1.960622864,0.072748718,5.378166046,5.724858462
850.0725694,-3.236120453,-4.460274811,10.1405127,11.54107988
850.2732364,-2.352208557,-0.095052338,9.844428406,10.12199045
850.4739024,-1.767075348,-1.981279907,9.331594849,9.701890938
850.6745684,-3.136876831,-0.414937134,9.341474304,9.86282471
850.8752336,0.062270508,-0.523311768,5.495821381,5.521031196
851.0759006,-3.999233551,-3.951931915,14.35080734,15.41289416
851.2765666,-2.38109848,-1.838626556,7.019502869,7.636988812
851.4772326,-2.06286026,-3.328628082,9.065298615,9.874958042
851.6778986,-2.808459778,-0.029189301,9.847272491,10.23997431
851.8785654,-0.362396393,-0.443377991,5.190157013,5.221651559
852.0792314,-3.892355804,-3.932023315,15.68079163,16.62824305
852.2798974,-1.184037781,-1.204844513,6.309978333,6.53218358
852.4805644,-2.461331635,-3.877985687,10.62804886,11.57809781
852.6812304,-0.854423218,-0.444276123,12.46203506,12.4991895
852.8818964,-1.542392578,-0.718056793,5.986501007,6.223566078
853.0825624,-3.328777771,-3.600612488,16.26742172,16.99041439
853.2832294,-0.58977356,-0.845142517,5.512436829,5.607946016
853.4838954,-2.798730011,-3.405867462,12.28046265,13.04770423
853.6845614,-1.517095184,-0.362845459,11.13983459,11.24851765
853.8852284,-1.329535217,-1.394949188,7.854167175,8.087118717
854.0858944,-3.657045135,-0.877774658,14.00906799,14.50511818
854.2865604,-1.076112213,-1.145418091,4.629273376,4.888780225
854.4872274,-2.358495483,-3.963757324,11.79247742,12.66240091
854.6878934,-1.3549823,-1.147962799,10.75109299,10.89677916
854.8885599,-1.886676636,-1.343905334,7.060517578,7.430783185
855.0892269,-3.387904816,-1.956581268,12.86305115,13.44485753
855.2898929,-0.656235352,-1.224004669,5.037773895,5.225705511
855.4905599,-3.926335144,-3.557801514,12.52879623,13.60311708
855.6912259,-1.683549042,-1.444496155,8.818611603,9.093339162
855.8918965,-1.341660004,-1.160237274,7.723638611,7.924695293
856.0925625,-2.874472504,-1.55975647,13.28996338,13.68643705
856.2932295,-0.823138275,-1.085542603,4.497996368,4.699779856
856.4938955,-2.349813538,-4.322112122,10.94014984,11.99538059
856.6945625,0.26330246,-1.04018692,8.192613373,8.262580159
856.8952243,-0.885857849,-2.033371582,8.438102875,8.724730612
857.0958913,-2.842888184,0.54531601,11.94905182,12.29468268
857.2965583,-0.553099823,-0.390687561,5.300327911,5.343410161
857.4972243,-4.655019836,-3.224444733,13.47632584,14.61771567
857.6978913,0.130378876,-0.440384216,7.68861145,7.702316726
857.898557,-3.86481308,-2.483036499,7.458539886,8.75968422
858.099224,-2.840343475,1.060394897,12.95181656,13.30193747
858.299891,-0.562679901,-0.903670807,4.907694397,5.02182177
858.500557,-5.442831573,-3.244053955,14.65602264,15.96706928
858.701224,-0.803978119,-1.913321228,7.642207947,7.91899749
858.9018905,-1.614991608,-2.239043884,7.247329102,7.755339742
859.1025575,-2.296374664,-0.180075531,14.45723602,14.6395846
859.3032245,-0.074245605,-0.624651031,3.403921509,3.46155788
859.5038905,-4.095633087,-2.236648865,12.75587402,13.58267759
859.7045575,-1.228195953,-0.491727448,9.864786072,9.953103306
859.9052232,-1.136586456,-1.498533783,7.915838928,8.136211539
860.1058902,-3.887116699,-2.67134491,14.83909195,15.5706265
860.3065562,-0.456400909,-0.548160095,5.376968536,5.42407337
860.5072232,-5.291645966,-2.991828461,14.15052383,15.40097008
860.7078902,-0.361049194,-1.060544586,11.17411331,11.23013444
860.90856,-0.359552307,-1.039588165,6.328240356,6.42313377
861.109227,-5.282514954,-2.728376312,15.30836609,16.4223955
861.309893,-1.35617981,-1.573827209,5.402864685,5.788531987
861.51056,-2.548300781,-3.597469025,11.67033142,12.47526576
861.711226,-1.582359467,1.464554443,12.73162445,12.91290217
861.9118895,-1.612147522,-0.688119049,6.385571136,6.621785726
862.1125565,-3.619173889,-3.336711273,15.47452057,16.23862213
862.3132225,-3.078647919,-0.852028198,6.667734375,7.393423209
862.5138895,-2.775528259,-1.477277985,9.582473145,10.08512265
862.7145555,-1.971400452,-1.062640228,11.76927567,11.98046216
862.9152219,-0.798140259,-1.718426514,5.549559631,5.864096662
863.1158879,-2.742447052,-2.351460114,15.73707458,16.1463896
863.3165549,-3.197201385,-1.320553894,6.949298859,7.76264864
863.5172209,-2.607427826,-1.692081299,9.255103912,9.763133074
863.7178879,-2.902015228,-2.920277252,10.20233414,11.00169684
863.9185543,-0.54531601,0.404458923,6.271208954,6.307853701
864.1192213,-2.383343811,-2.85381546,11.40104141,11.99201133
864.3198872,-3.209326172,-2.231110382,11.08594666,11.75482204
864.5205542,-1.72591095,-1.82769928,5.179828491,5.75759294
864.7212202,-5.465135193,-4.537364502,15.67465439,17.20901419
864.921888,0.876876526,-2.413131866,6.325545959,6.826759812
865.122555,-2.530637512,-1.256487122,7.707771606,8.209301386
865.323221,-4.491559753,0.401614838,12.07883194,12.89316038
865.523888,-0.753383331,-1.037193146,5.252577209,5.406747951
865.724554,-4.035308533,-5.663323059,12.57774445,14.37207704
865.9252202,-1.711391144,-1.558109894,9.532776489,9.809709154
866.1258862,-2.537523193,-1.523531799,7.086862793,7.680090973
866.3265532,-4.64529007,-3.441493378,13.90832748,15.06201082
866.5272192,-1.813778229,-1.005608826,5.74625061,6.109045478
866.7278862,-3.60615097,-5.400170288,10.81965042,12.6186766
866.9285528,-1.453178101,0.582588501,11.450289,11.55682717
867.1292198,-1.229243774,-0.431103516,5.714815979,5.861400189
867.3298858,-1.321152649,-1.83697998,13.36690338,13.55706627
867.5305528,-2.023791504,-0.423170013,6.112987976,6.453171849
867.7312188,-3.248095551,-1.391955414,11.86328018,12.3784119
867.9318858,-2.66894989,-0.122445374,9.272168427,9.649424528
868.1325518,-0.32183075,-0.329464874,6.184239807,6.201366311
868.3332188,-3.002606049,-1.159488831,13.1609317,13.54880735
868.5338848,-3.178340607,-1.026565247,8.612190857,9.237181203
868.7345518,0.211510162,-3.504512329,7.708220673,8.470124506
868.9352187,-2.37765564,-1.692829742,10.8876091,11.27204288
869.1358847,0.915945282,-0.329614563,6.405330048,6.478877568
869.3365517,-2.32960556,-2.567910004,10.84973785,11.39026055
869.5372187,-3.155587921,-0.709524536,9.535770264,10.06936317
869.7378847,-2.534978485,-1.047970734,7.259304199,7.760274224
869.9385513,-5.017416229,-4.020489349,10.83027832,12.59498824
870.1392183,-0.465531921,-1.159638519,5.712870026,5.847936849
870.3398853,-3.110531616,-3.006797333,10.66247726,11.50672232
870.5405523,-3.985162811,0.174686737,12.48613495,13.10784513
870.7412183,-1.416354675,-2.0371138,3.861819305,4.590157029
870.9418894,-4.216880951,-6.041885834,12.7043811,14.68631229
871.1425564,0.419128418,-0.874481506,6.005810852,6.083596841
871.3432234,-2.390079803,-2.223027191,10.14275803,10.65503973
871.5438904,-3.188968506,-0.525706787,13.86851028,14.24013572
871.7445574,-0.294587402,-0.773142242,4.778363342,4.849462537
871.9452199,-4.752467194,-5.501509552,15.03039413,16.69626604
872.1458869,-0.819845123,-0.976120148,6.338718567,6.465625232
872.3465539,-0.742456055,-1.921404419,7.898774414,8.162945129
872.5472209,-3.09720932,1.838626556,12.30815506,12.82434927
872.7478879,-0.973276062,-0.89858139,4.968018951,5.141587995
872.9485555,-2.563119965,-3.260968781,12.43224701,13.10588673
873.1492225,-0.516575775,0.096249847,11.28024261,11.29247484
873.3498895,-0.590372314,-0.683179321,7.397616577,7.452516654
873.5505565,-4.737498322,-5.927074585,14.47864151,16.34641133
873.7512235,-1.89790329,-1.883682861,4.818629608,5.51085196
873.9518901,-3.014880524,-2.688708801,9.096134491,9.952804744
874.1525571,-2.089355164,-0.101638641,10.2452948,10.45666299
874.3532241,-1.685794373,-0.860560455,5.619164886,5.929374418
874.5538911,-1.740430756,-3.660787354,12.73192383,13.36159974
874.7545581,-3.892056427,-2.41507782,9.418563995,10.47330186
874.9552264,-1.676214294,-1.742975464,5.944588165,6.417615311
875.1558934,-4.318369904,-5.857918396,9.801168365,12.2076381
875.3565604,0.289198608,0.439336395,5.749992828,5.773999466
875.5572274,-2.969524841,-1.617536316,11.06693619,11.57201703
875.7578934,-1.378932495,0.047601013,11.12142288,11.20668406
875.95856,-1.702409821,-0.030686188,5.928272095,6.167945433
876.159227,-3.200644226,-3.888613586,13.11228287,14.04625933
876.359894,-0.65174469,-1.803898773,8.663983154,8.873749265
876.560561,-1.557511139,-1.317709808,7.067702637,7.356264041
876.761228,-3.577111359,-1.654060364,15.25567566,15.75649965
876.9618946,-2.556982727,-1.769320679,5.477110291,6.298205575
877.1625616,-3.079546051,-1.466500397,10.02046234,10.58507878
877.3632286,-2.393672333,-1.187480621,8.979976044,9.369084652
877.5638956,-0.513132935,-1.683099976,6.292015686,6.533421181
877.7645626,-2.618953857,-3.573069763,10.74779984,11.6250139
877.9652293,-2.425106964,1.207987976,11.08639572,11.41264863
878.1658963,-1.621278534,-1.339863739,5.869294739,6.234773424
878.3665633,-4.925806732,-3.563190308,10.87847809,12.46198951
878.5672293,0.97118042,-1.333726501,12.17777618,12.28902968
878.7678963,-1.015488281,-2.151625671,6.700216827,7.11010654
878.968564,-2.225571899,-3.184627533,12.8118576,13.3880065
879.169231,-2.477647705,-2.575993195,8.753197632,9.454784391
879.369898,-2.703827362,-2.038011932,7.109316101,7.874423818
879.570565,-1.870809631,-5.85507431,12.7946434,14.19453147
879.771232,-1.00980011,-1.904639282,6.769522705,7.104490461
879.9718984,-2.299069061,-1.038091278,8.271199951,8.647317543
880.1725654,-3.195854187,0.487087097,12.94523026,13.34277798
880.3732314,-2.136058044,-0.889899445,6.771468658,7.155938288
880.5738984,-2.304308167,-0.802930298,11.88588318,12.13378556
880.7745654,-0.874182129,1.845661926,10.77025314,10.96216288
880.9752323,0.315094757,0.303568726,8.462651825,8.473955073
881.1758993,-0.775686951,0.710123291,10.53359528,10.58596216
881.3765663,-1.374591522,1.121617584,9.35015625,9.516982177
881.5772333,-0.74889267,2.258653107,7.805518341,8.160175896
881.7778993,0.817300415,3.175346832,12.53508316,12.95681741
881.9785661,2.323019257,0.613424377,7.445367279,7.82343926
882.1792331,0.631087646,1.050216064,8.213869171,8.304749976
882.3799001,0.268691254,3.622916107,10.66771637,11.26933399
882.5805671,0.067659302,2.141147461,8.16013092,8.436635992
882.7812341,1.036295013,4.022884369,9.134155426,10.03445571
882.9819002,0.643212433,6.580914917,10.52760773,12.43192213
883.1825672,0.407303009,4.016298065,8.737480316,9.624973151
883.3832342,-0.617915039,4.070485382,8.102051697,9.088119274
