"time","Acceleration x","Acceleration y","Acceleration z","abs Acceleration"
2.215342084E-1,-2.950364685E-1,3.077600098E0,1.217927307E1,1.256556252E1
4.219232085E-1,7.807763672E-1,-6.503974915E-1,9.301357727E0,9.356702635E0
6.223112084E-1,-3.986210632E-1,2.439626770E0,8.409212952E0,8.765017969E0
8.227004586E-1,1.945953369E-3,2.631677399E0,1.076366684E1,1.108071539E1
1.023088458E0,9.361532593E-1,1.065334625E0,8.907975769E0,9.020163695E0
1.223477459E0,8.039781189E-1,2.487527161E0,8.196954346E0,8.603733651E0
1.423865458E0,-6.982978821E-1,3.335962830E0,1.009231293E1,1.065227901E1
1.624254459E0,-3.388952637E-1,5.327421570E-1,1.180789536E1,1.182476456E1
1.824642584E0,-6.036946106E-1,5.520520020E-1,9.813143463E0,9.847181994E0
2.025031583E0,-7.014413452E-1,3.733685760E0,9.004375305E0,9.772983370E0
2.225419584E0,-4.460723877E-1,-1.642085266E-1,9.895771637E0,9.907181300E0
2.425808583E0,-1.227447510E-2,2.828967133E0,6.156248016E0,6.775145411E0
2.626196584E0,-7.574249268E-1,2.778671722E0,1.087264023E1,1.124762262E1
2.826584584E0,-1.922003174E0,-7.695497131E-1,1.038300842E1,1.058740605E1
3.026973584E0,-6.035449219E-1,2.376757507E0,7.543862457E0,7.932408430E0
3.227361584E0,-1.018931122E0,2.907104645E0,1.144864243E1,1.185583786E1
3.427750584E0,2.239343262E-1,1.259929962E0,5.382656708E0,5.532681387E0
3.628138584E0,-8.951385498E-2,2.914439392E0,6.623426514E0,7.236832766E0
3.828527709E0,-1.109043732E0,2.332150269E0,1.434077820E1,1.457143858E1
4.028915708E0,-6.108796692E-1,6.295907593E-1,7.036417694E0,7.090890809E0
4.229304709E0,-6.810836792E-2,2.999612274E0,8.586294708E0,9.095425738E0
4.429693709E0,-2.986289978E-1,2.375709686E0,1.283895126E1,1.306031567E1
4.630082459E0,5.483097839E-1,2.131567383E0,7.366032257E0,7.687825072E0
4.830471458E0,8.581654358E-1,2.333647156E0,1.050889664E1,1.079904003E1
5.030860459E0,9.220825195E-1,2.066901855E0,1.429527283E1,1.447332528E1
5.231248458E0,4.489164734E-1,1.588796082E0,7.124434662E0,7.313232407E0
5.431637459E0,-4.269122314E-1,3.301833801E0,9.484277344E0,1.005166042E1
5.632025834E0,1.477427673E-1,1.176553345E-1,1.031954041E1,1.032126857E1
5.832413834E0,-5.559439087E-1,2.560425568E0,6.255641327E0,6.782175250E0
6.032802834E0,-3.171903992E-1,2.205513611E0,1.405502243E1,1.423055008E1
6.233191833E0,-7.453001404E-1,2.424957275E-1,6.731651459E0,6.777123862E0
6.433579834E0,-4.399351501E-1,2.784659271E0,7.261399841E0,7.789467109E0
6.633969083E0,-8.747808838E-1,2.627935181E0,1.317724777E1,1.346518265E1
6.834358084E0,5.414241028E-1,1.759590912E0,7.125332794E0,7.359325218E0
7.034746083E0,2.781216431E-1,2.860850830E0,7.216493225E0,7.767856435E0
7.235135084E0,4.237687683E-1,2.420167236E0,1.437580536E1,1.458425758E1
7.435524084E0,-6.370751953E-1,1.018332367E0,6.285429382E0,6.399178708E0
7.635912959E0,-5.360353088E-1,3.684288483E0,9.862989807E0,1.054229024E1
7.836300958E0,-3.827540588E-1,-6.929090881E-1,1.422791290E1,1.424991682E1
8.036689959E0,-5.914201355E-1,2.527943115E0,5.494474182E0,6.076966407E0
8.237078959E0,-4.840933228E-1,3.334765320E0,1.315165100E1,1.357648445E1
8.437467958E0,-2.126777344E0,2.519261169E-1,7.034022675E0,7.352830994E0
8.637856000E0,-1.422042847E-1,2.485880585E0,5.776936798E0,6.290693373E0
8.838245000E0,-1.041534119E0,2.481090546E0,1.419917267E1,1.445188943E1
9.038634000E0,2.155517578E-2,1.162033539E0,7.018305359E0,7.113887593E0
9.239023000E0,-1.047821045E-2,2.809507599E0,8.723559265E0,9.164820183E0
9.439412000E0,-1.642085266E-1,3.288212128E0,1.305555084E1,1.346427537E1
9.639799833E0,3.218307495E-2,1.267564087E0,6.244863739E0,6.372289823E0
9.840188833E0,-9.879455566E-1,3.148702240E0,9.653575287E0,1.020205264E1
1.004057783E1,4.260140991E-1,-9.128018188E-1,1.188842789E1,1.193102732E1
1.024096683E1,-1.012494507E0,1.990710297E0,6.043831787E0,6.443289166E0
1.044135483E1,-6.146218872E-1,1.840572510E0,1.263342865E1,1.278158780E1
1.064174458E1,-1.583706665E0,3.118016052E-1,8.227041779E0,8.383887134E0
1.084213358E1,-6.984475708E-1,2.657124481E0,5.177583160E0,5.861357087E0
1.104252258E1,3.887416077E-1,2.448159027E0,1.292008255E1,1.315572635E1
1.124291158E1,3.739224243E-1,1.667083282E0,5.405110016E0,5.668703461E0
1.144329958E1,2.754272461E-1,2.154769135E0,9.445807343E0,9.692376723E0
1.164368762E1,1.035546570E0,3.566932526E0,1.294133835E1,1.346378857E1
1.184407663E1,-2.791694641E-1,9.744735718E-1,6.934479675E0,7.008176846E0
1.204446563E1,-5.673202515E-1,3.605402527E0,1.137724091E1,1.194832165E1
1.224485363E1,4.153862000E-1,-7.241940308E-1,9.671687622E0,9.707653895E0
1.244524263E1,-8.750802612E-1,2.543810120E0,6.148613892E0,6.711347717E0
1.264563246E1,-5.224136353E-1,1.535207520E0,1.366747833E1,1.376334778E1
1.284602146E1,-1.013242950E0,4.775070190E-2,7.811505890E0,7.877091194E0
1.304641046E1,-2.935395813E-1,3.598516846E0,6.089786224E0,7.079617591E0
1.324679846E1,1.163680115E0,2.525099030E0,1.315284851E1,1.344350031E1
1.344718746E1,8.692424011E-1,1.726210327E0,6.414311371E0,6.699162247E0
1.364757571E1,-1.698966980E-1,2.362387390E0,9.676327972E0,9.961980832E0
1.384796471E1,1.477427673E-1,-1.472937012E-1,1.633493134E1,1.633626350E1
1.404835371E1,-3.794609070E-1,1.041833496E0,4.872367859E0,4.996936678E0
1.424874171E1,-8.885522461E-1,3.181035004E0,1.201940552E1,1.246493553E1
1.444913071E1,-1.752854919E-1,3.323089600E-2,7.197033691E0,7.199244631E0
1.464952000E1,-4.126918030E-1,2.691403198E0,6.348448334E0,6.907732041E0
1.484990900E1,-5.433700562E-2,2.596500549E0,1.233839218E1,1.260875447E1
1.505029800E1,-6.993457031E-1,1.623972931E0,7.790100403E0,7.988243660E0
1.525068700E1,2.981799316E-1,4.007017365E0,7.500452728E0,8.508930048E0
1.545107500E1,7.429051208E-1,2.570454712E0,1.328652054E1,1.355325693E1
1.565146396E1,5.358856201E-1,2.358645172E0,6.710395660E0,7.133007105E0
1.585185296E1,-2.740800476E-1,2.487676849E0,1.059631485E1,1.088786225E1
1.605224196E1,-2.586920471E0,-6.376739502E-1,1.532947220E1,1.555928994E1
1.625262996E1,-2.064207458E-1,1.889071655E0,4.634961548E0,5.009398147E0
1.645301896E1,-5.990542603E-1,3.072360992E0,1.438358917E1,1.472025494E1
1.665340783E1,-3.607498169E-2,1.345551910E0,6.668482819E0,6.802975412E0
1.685379683E1,-1.575773163E0,2.493514709E0,6.617738342E0,7.245352816E0
1.705418583E1,-7.789801025E-1,3.880680084E0,1.289179138E1,1.348572478E1
1.725457383E1,-1.999841309E-1,1.252744904E0,7.671996002E0,7.776174259E0
1.745496283E1,-3.544628906E-1,4.611310730E0,8.662486267E0,9.819801368E0
1.765535208E1,-4.969665527E-2,1.603166199E-1,1.676977707E1,1.677061699E1
1.785574108E1,-1.205293579E0,1.611548767E0,5.538332977E0,5.892618621E0
1.805613008E1,2.903961182E-2,3.622167664E0,1.318772598E1,1.367614926E1
1.825651808E1,-3.218307495E0,-1.452579346E0,1.033316208E1,1.091978610E1
1.845690708E1,-7.379653931E-1,2.287992096E0,5.146896973E0,5.680673305E0
1.865729621E1,-1.561253357E-1,2.936593323E0,1.441352692E1,1.471046273E1
1.885768421E1,-2.874023438E-1,2.218237152E0,6.315666504E0,6.700061161E0
1.905807321E1,-8.475375366E-1,2.831511841E0,7.068002014E0,7.661098593E0
1.925846221E1,-9.095086670E-1,3.946543121E0,1.185744232E1,1.253001784E1
1.945885121E1,-2.034269714E-1,1.523980865E0,6.695576477E0,6.869835847E0
1.965923871E1,-9.247769165E-1,4.303550720E0,1.185265228E1,1.264362002E1
1.985962771E1,3.147953796E-1,-5.522016907E-1,1.171718399E1,1.173441194E1
2.006001671E1,-1.384171600E0,1.857487335E0,5.948929138E0,6.384038542E0
2.026040471E1,-1.926493835E-1,2.854414215E0,1.480990265E1,1.508370017E1
2.046079371E1,-8.448431396E-1,7.361691284E-1,7.704628143E0,7.785691989E0
2.066118296E1,3.996688843E-2,3.684737549E0,5.868396606E0,6.929427602E0
2.086157096E1,1.676513672E-2,2.622845764E0,1.271081772E1,1.297861657E1
2.106195996E1,5.715115356E-1,1.866318970E0,6.635401611E0,6.916525607E0
2.126234896E1,-4.102967834E-1,3.113974457E0,1.025008484E1,1.072051396E1
2.146273696E1,-9.237290955E-1,6.367758179E-1,1.384456009E1,1.388994611E1
2.166312650E1,-5.908213806E-1,1.744622040E0,5.408552856E0,5.713599563E0
2.186351550E1,-4.614903259E-1,2.869233398E0,1.296379166E1,1.328553227E1
2.206390350E1,1.061293030E-1,-1.697470093E-1,7.654931488E0,7.657548796E0
2.226429250E1,-3.623963928E-1,2.336940308E0,6.635401611E0,7.044229957E0
2.246468150E1,-9.873468018E-1,3.257226562E0,1.247026794E1,1.292640558E1
2.266506913E1,-1.860630798E-1,1.650767212E0,7.827971649E0,8.002299169E0
2.286545813E1,2.279759216E-1,4.107608185E0,8.560548248E0,9.497757858E0
2.306584713E1,1.374741211E0,2.058968353E0,1.491363693E1,1.511773232E1
2.326623513E1,-5.081932068E-1,1.824406128E0,6.889273682E0,7.144844989E0
2.346662413E1,2.941383362E-1,2.783761139E0,1.130928223E1,1.165056685E1
2.366701258E1,-1.981429596E0,2.323168945E-1,8.928183746E0,9.148360476E0
2.386740058E1,-6.369255066E-1,2.137255554E0,6.558012543E0,6.926836501E0
2.406778958E1,-9.060658264E-1,2.318827972E0,1.312710205E1,1.336109003E1
2.426817758E1,2.528242493E-1,2.267784119E0,6.526877289E0,6.914252820E0
2.446856658E1,2.688409424E-1,3.233875122E0,8.142916718E0,8.765689729E0
2.466895588E1,-5.647755432E-1,2.509232025E0,1.413061523E1,1.436278189E1
2.486934387E1,-4.029620361E-1,1.620530090E0,6.945107574E0,7.143039647E0
2.506973288E1,-3.686833191E-1,2.567610626E0,9.262738037E0,9.619088713E0
2.527012087E1,-6.391708374E-2,-1.080153809E0,1.418944290E1,1.423063974E1
2.547050988E1,-1.224304047E0,2.306104431E0,6.199058990E0,6.726467900E0
2.567089938E1,5.074447632E-2,3.270848236E0,1.046922913E1,1.096839923E1
2.587128738E1,-1.232087860E0,1.836680603E-1,9.872719574E0,9.950998253E0
2.607167638E1,-4.827461243E-1,2.403252411E0,7.025490417E0,7.440845488E0
2.627206438E1,-2.128573608E-1,3.256478119E0,1.246068787E1,1.288094329E1
2.647245338E1,8.722361755E-1,1.989812164E0,6.982679443E0,7.312862682E0
2.667284146E1,2.712359619E-1,2.514620819E0,8.564889221E0,8.930521496E0
2.687323046E1,-9.160949707E-1,3.670666809E0,1.094089828E1,1.157654007E1
2.707361846E1,3.344046021E-1,1.896107025E0,7.363038483E0,7.610609961E0
2.727400746E1,-4.511618042E-1,2.725981293E0,1.009261230E1,1.046400230E1
2.747439546E1,8.385562134E-1,3.336561584E-1,1.401251083E1,1.404154418E1
2.767478425E1,-2.748284912E-1,2.084565125E0,7.035669250E0,7.343131775E0
2.787517325E1,-5.351371765E-1,1.584455109E0,1.315868637E1,1.326453530E1
2.807556125E1,-5.529501343E-1,7.801776123E-1,6.689139862E0,6.757146073E0
2.827595025E1,-8.828640747E-1,2.424957275E0,6.530469818E0,7.021887411E0
2.847633925E1,-9.737251282E-1,2.129172363E0,1.279539185E1,1.300782718E1
2.867672833E1,8.867559814E-1,1.097966766E0,6.845414886E0,6.989389970E0
2.887711733E1,2.215393066E-1,2.548899536E0,8.490643616E0,8.867750420E0
2.907750533E1,-8.078700256E-1,3.275638275E0,1.244946121E1,1.289850939E1
2.927789433E1,6.926097107E-1,2.011816406E0,6.309978333E0,6.659049483E0
2.947828333E1,-4.105961609E-1,3.361709290E0,1.029963181E1,1.084214434E1
2.967867146E1,1.346599731E0,-1.532812500E-1,1.488459732E1,1.494617220E1
2.987906046E1,-1.417552185E-1,2.044149170E0,6.502927094E0,6.818115660E0
3.007944946E1,1.338217163E-1,3.021466827E0,1.139340729E1,1.178799812E1
3.027983846E1,1.321751404E-1,9.963281250E-1,7.581284637E0,7.647615102E0
3.048022746E1,-6.875202942E-1,2.477498016E0,6.994504852E0,7.452098946E0
3.068061671E1,-7.056326294E-1,1.840123444E0,1.479089218E1,1.492161061E1
3.088100571E1,6.762936401E-1,2.355501709E0,6.475384369E0,6.923609183E0
3.108139471E1,5.948629761E-1,3.078049164E0,7.569159851E0,8.192705870E0
3.128178371E1,-1.562750244E-1,3.031346283E0,1.301947586E1,1.336862872E1
3.148217271E1,8.149053955E-1,1.751507721E0,5.998625793E0,6.302012497E0
3.168256158E1,-8.419990540E-1,3.335364075E0,1.020637573E1,1.077050238E1
3.188295058E1,4.029620361E-1,9.101074219E-2,1.178409485E1,1.179133380E1
3.208333958E1,-3.559597778E-1,2.309696960E0,6.237828369E0,6.661224375E0
3.228372958E1,-1.479523315E0,1.228794708E0,1.449630478E1,1.462332992E1
3.248411858E1,-1.173709259E0,1.128054199E0,7.110064545E0,7.294046718E0
3.268450850E1,-6.518943787E-1,2.393971710E0,7.323820038E0,7.732684319E0
3.288489750E1,-5.562432861E-1,2.662513275E0,1.289268951E1,1.317648764E1
3.308528650E1,1.071022797E0,2.021845551E0,6.417155457E0,6.812843269E0
3.328567550E1,3.064128113E-1,2.511028290E0,8.741970978E0,9.100615829E0
3.348606450E1,-1.445993042E-1,2.221081238E0,1.495105911E1,1.511582877E1
3.368645300E1,-1.107696533E-2,1.363364868E0,6.207591248E0,6.355554701E0
3.388684200E1,-1.257684631E0,3.260669403E0,1.026924500E1,1.084763238E1
3.408723100E1,8.517288208E-2,-1.363364868E0,1.101469482E1,1.109907745E1
3.428762000E1,-1.411864014E0,2.089953918E0,5.833219757E0,6.355133367E0
3.448800900E1,-1.013841705E0,1.811832275E0,1.247909958E1,1.265063388E1
3.468839813E1,-1.479673004E0,1.058448944E0,6.559958496E0,6.807554762E0
3.488878713E1,-5.986051941E-1,2.195783844E0,7.030130768E0,7.389352711E0
3.508917613E1,5.119354248E-2,4.099674683E0,1.222926910E1,1.289825477E1
3.528956513E1,3.330574036E-1,2.144590302E0,5.469775543E0,5.884610377E0
3.548995413E1,-1.839674377E-1,1.974244537E0,1.126632156E1,1.143947058E1
3.569034283E1,-1.731000366E0,-1.095422058E0,1.584829330E1,1.598013493E1
3.589073183E1,-8.309220886E-1,1.568438416E0,4.647385712E0,4.974798944E0
3.609112083E1,-1.394799500E0,2.858006744E0,1.316721863E1,1.354582277E1
3.629150983E1,-4.646337891E-1,-5.149291992E-2,7.210805054E0,7.225942541E0
3.649189883E1,-1.173110504E0,2.823578339E0,6.078709259E0,6.804372796E0
3.669228846E1,-1.509011993E0,2.522404633E0,1.242805573E1,1.277091271E1
3.689267746E1,-4.444258118E-1,1.330882416E0,8.979526978E0,9.088490911E0
3.709306546E1,3.811074829E-1,3.977828064E0,7.400161285E0,8.410157315E0
3.729345446E1,1.009650421E0,3.320245514E0,1.381761612E1,1.424675189E1
3.749384346E1,-4.435276794E-1,1.395997009E0,5.478307800E0,5.670747817E0
3.769423158E1,-8.396040344E-1,2.368524628E0,1.243164825E1,1.268308804E1
3.789461958E1,-2.103126526E0,-1.426982574E0,1.399200348E1,1.422095573E1
3.809500858E1,-6.713539124E-1,1.510209503E0,5.835764465E0,6.065277876E0
3.829539758E1,-8.617579651E-1,2.097438354E0,1.365280884E1,1.383983611E1
3.849578658E1,-2.667453003E-1,-4.903802490E-1,8.291407928E0,8.310178775E0
3.869617508E1,-6.014492798E-1,2.685565338E0,5.151537323E0,5.840576959E0
3.889656408E1,-1.010548553E0,2.720592499E0,1.279254776E1,1.311762593E1
3.909695208E1,-9.033714294E-1,1.335373077E0,8.073610840E0,8.233012401E0
3.929734108E1,2.306703186E-1,3.477268982E0,7.919880524E0,8.652694140E0
3.949772908E1,1.175505524E0,2.959346008E0,1.399814072E1,1.435574747E1
3.969811800E1,-1.562750244E-1,1.270108795E0,6.078858948E0,6.212095004E0
3.989850600E1,-1.326242065E-1,2.632276154E0,1.295735504E1,1.322268946E1
4.009889500E1,-2.405198364E0,-2.224075012E0,1.374786118E1,1.413276957E1
4.029928300E1,1.130149841E-1,2.524949341E0,5.849685516E0,6.372359233E0
4.049967200E1,-1.491797791E0,9.798623657E-1,1.686348221E1,1.695767151E1
4.070006000E1,-4.328997803E-1,4.177812195E-1,5.062173157E0,5.097797606E0
4.090044800E1,-1.219214630E0,2.481988678E0,7.522606659E0,8.014759077E0
4.110083700E1,-7.499404907E-1,2.764750671E0,1.252490433E1,1.284832617E1
4.130122500E1,-4.242178345E-1,1.063987427E0,7.394473114E0,7.482664141E0
4.150161300E1,-2.710862732E-1,3.772006073E0,9.651030579E0,1.036551537E1
4.170200062E1,1.401086426E-1,-4.005670166E-1,1.694910416E1,1.695441583E1
4.190238963E1,-5.721102905E-1,1.369502106E0,5.491031342E0,5.688081522E0
4.210277762E1,-1.304986267E0,2.014211426E0,1.487905884E1,1.507137780E1
4.230316563E1,-2.562221832E0,-4.822970581E-1,8.763975220E0,9.143568932E0
4.250355462E1,-2.185455322E-2,2.231858826E0,5.358556824E0,5.804808582E0
4.270394283E1,-1.266067200E0,2.191442871E0,1.410786255E1,1.433307831E1
4.290433083E1,4.357438660E-1,2.208956451E0,6.090834045E0,6.493660038E0
4.310471983E1,-7.015910339E-1,2.945874023E0,8.360713806E0,8.892240386E0
4.330510783E1,-1.198258209E0,3.407064972E0,1.321916061E1,1.370365359E1
4.350549683E1,-2.249821472E-1,1.501976624E0,6.896009674E0,7.061267604E0
4.370588546E1,-8.168513489E-1,3.764970703E0,1.010189301E1,1.081159067E1
4.390627346E1,-7.397616577E-1,-1.264121246E0,1.432191742E1,1.439661656E1
4.410666246E1,-8.728349304E-1,2.146386566E0,5.889203339E0,6.328627977E0
4.430705046E1,-8.514294434E-1,2.129920807E0,1.250798950E1,1.271657564E1
4.450743846E1,-2.069147186E0,4.375401306E-1,7.832761688E0,8.113258723E0
4.470782696E1,-2.415975952E-1,3.037034454E0,5.682632904E0,6.447810822E0
4.490821496E1,-9.398954773E-1,2.285896454E0,1.320464081E1,1.343395939E1
4.510860296E1,-4.610412598E-2,1.822310486E0,7.594906311E0,7.810604520E0
4.530899196E1,-2.189945984E-1,3.288661194E0,8.327333221E0,8.955876823E0
4.550937996E1,7.005432129E-2,2.369273071E0,1.540192154E1,1.558324580E1
4.570976796E1,-3.722758484E-1,1.393901367E0,6.268065491E0,6.431966676E0
4.591015596E1,-3.610491943E-1,3.286715240E0,1.178828613E1,1.224322439E1
4.611054496E1,-5.046006775E-1,1.290316772E-1,1.074061478E1,1.075323564E1
4.631093296E1,-5.159770203E-1,2.639161835E0,4.410428467E0,5.165586776E0
4.651132096E1,-1.166524200E0,2.279459839E0,1.347048798E1,1.371170165E1
4.671170912E1,-1.224154358E0,1.544637909E0,8.924591217E0,9.139627375E0
4.691209713E1,-1.339714050E-1,3.813170471E0,6.225104828E0,7.301379835E0
4.711248513E1,1.346450043E0,1.673819275E0,1.515224075E1,1.530375766E1
4.731287413E1,-5.170248413E-1,1.489851837E0,5.804778900E0,6.015183394E0
4.751326213E1,-6.394702148E-1,2.120191040E0,1.320688614E1,1.339126483E1
4.771365000E1,-2.706821136E0,-1.049168243E0,1.143666733E1,1.179936415E1
4.791403800E1,4.662803650E-1,2.402054901E0,5.960604858E0,6.443298488E0
4.811442600E1,-1.038091278E0,9.877958679E-1,1.510583725E1,1.517365128E1
4.831481400E1,5.307962036E-1,1.733994141E0,5.943989410E0,6.214458174E0
4.851520200E1,-7.068301392E-1,2.732118530E0,6.966063995E0,7.515991491E0
4.871558958E1,-1.294208679E0,3.101699982E0,1.241697876E1,1.286378173E1
4.891597758E1,-3.592529297E-1,1.074465637E0,7.373217316E0,7.459750174E0
4.911636558E1,-6.610253906E-1,3.730841675E0,9.694440308E0,1.040856892E1
4.931675358E1,-3.504212952E-1,-1.165775757E0,1.557181824E1,1.561932622E1
4.951714158E1,-4.372407532E-1,1.793270874E0,4.260140991E0,4.642822543E0
4.971752875E1,-3.323089600E-1,2.319726105E0,1.475212280E1,1.493709094E1
4.991791675E1,-2.092648315E0,-1.736389160E-2,7.967182159E0,8.237443174E0
5.011830375E1,-7.423063660E-1,2.312690735E0,6.758595428E0,7.181794298E0
5.031869175E1,-6.598278809E-1,2.533930664E0,1.189291855E1,1.217775386E1
5.051907875E1,8.319699097E-1,1.893262939E0,7.048392792E0,7.345506071E0
5.071946737E1,-3.802093506E-1,2.632425842E0,9.232351227E0,9.607837121E0
5.091985438E1,2.652484131E-1,1.162033539E0,1.484792358E1,1.489568775E1
5.112024138E1,5.331912231E-1,1.943857727E0,5.604944458E0,5.956364505E0
5.132062838E1,-9.066645813E-1,2.465223541E0,1.410397064E1,1.434647537E1
5.152101538E1,4.734654236E-1,5.044509888E-2,7.035818939E0,7.051911965E0
5.172140221E1,-1.135688324E0,2.247426453E0,6.000871124E0,6.507777492E0
5.192178921E1,-1.387165375E0,1.778152313E0,1.289658142E1,1.309228268E1
5.212217621E1,-5.275030518E-1,1.513053589E0,8.573122101E0,8.721583181E0
5.232256321E1,-4.822970581E-1,3.172802124E0,7.534731445E0,8.189716828E0
5.252295021E1,2.133064270E-1,2.686463470E0,1.327319824E1,1.354401629E1
5.272333671E1,1.163081360E-1,1.493294678E0,6.876999207E0,7.038222408E0
5.292372271E1,-6.635700989E-1,2.401456146E0,1.132754425E1,1.159830055E1
5.312410971E1,-2.509082336E0,-3.706292725E-1,1.303803726E1,1.328244239E1
5.332449571E1,1.938468933E-1,2.111509094E0,5.996530151E0,6.360379008E0
5.352488271E1,-8.184979248E-1,1.891167297E0,1.598286346E1,1.611515985E1
5.372526938E1,-5.635780334E-1,6.572831726E-1,6.145320740E0,6.206013887E0
5.392565638E1,-9.205856323E-1,2.739303589E0,6.405330048E0,7.027055932E0
5.412604238E1,-4.224215698E-1,3.597918091E0,1.160821060E1,1.216034572E1
5.432642937E1,-6.279441833E-1,1.151705017E0,7.261250153E0,7.378786629E0
5.452681538E1,-1.396595764E-1,3.855083313E0,8.291557617E0,9.145004093E0
5.472720058E1,1.661544800E-1,-9.090596008E-1,1.672023010E1,1.674574846E1
5.492758658E1,-4.135899353E-1,1.904639282E0,5.278024292E0,5.626388527E0
5.512797358E1,-1.267713776E0,1.762584686E0,1.367331619E1,1.384461551E1
5.532835958E1,-3.112627258E0,-1.010698242E0,1.067280579E1,1.116327652E1
5.552874558E1,2.415975952E-1,1.888323212E0,5.166955261E0,5.506501668E0
5.572913221E1,-1.092428284E0,1.649569702E0,1.420081924E1,1.433798267E1
5.592951821E1,4.743635559E-1,1.737886047E0,7.907456360E0,8.110063796E0
5.612990421E1,-2.406994629E-1,2.807262268E0,7.316185913E0,7.839976657E0
5.633029021E1,-2.059716797E-1,4.320914612E0,1.245619720E1,1.318596133E1
5.653067621E1,3.043171692E-1,1.265767822E0,7.237599335E0,7.353748789E0
5.673106221E1,-5.215155029E-1,3.772754517E0,1.091125992E1,1.155687017E1
5.693144821E1,1.703457642E-1,-1.125659180E-1,1.509685593E1,1.509823657E1
5.713183321E1,-9.903405762E-1,1.762285309E0,4.895419922E0,5.296372360E0
5.733221921E1,-1.456022186E0,2.089504852E0,1.362736176E1,1.386329757E1
5.753260521E1,-1.268761597E0,1.543290710E-1,8.471184082E0,8.567060943E0
5.773299121E1,-3.315605164E-1,2.532882843E0,5.739215240E0,6.282039434E0
5.793337621E1,-2.695893860E-1,2.862796783E0,1.185504730E1,1.219878807E1
5.813376221E1,4.688250732E-1,2.287543030E0,7.454797668E0,7.811956115E0
5.833414721E1,1.535656586E0,3.196752319E0,8.570577393E0,9.275357857E0
5.853453321E1,-1.606159973E-1,1.521735535E0,1.590367813E1,1.597712285E1
5.873491833E1,6.466552734E-2,1.763033752E0,5.407505035E0,5.688020776E0
5.893530333E1,-5.828878784E-1,2.982398071E0,1.259675491E1,1.295811294E1
5.913568933E1,1.100212097E-1,1.954934692E-1,7.160659332E0,7.164172278E0
5.933607433E1,-1.245410156E0,2.591860199E0,5.991740112E0,6.646031547E0
5.953645933E1,-8.375083923E-1,2.277962952E0,1.225890747E1,1.249685352E1
5.973684396E1,-5.563929749E-1,1.103804626E0,9.438921661E0,9.519516791E0
5.993722896E1,2.372566223E-1,3.679797821E0,8.373886414E0,9.149818379E0
6.013761396E1,4.363426208E-1,1.279539185E0,1.457668762E1,1.463924306E1
6.033799896E1,-2.513273621E-1,1.594633942E0,7.636968842E0,7.805723281E0
6.053838296E1,8.467890930E-1,3.524570618E0,1.118998032E1,1.176245337E1
6.073876800E1,-1.699266357E0,-3.908372498E-1,1.267863464E1,1.279797001E1
6.093915300E1,2.296224976E-1,2.333198090E0,6.511309662E0,6.920526955E0
6.113953700E1,-3.830534363E-1,2.452500000E0,1.620664810E1,1.639563750E1
6.133992200E1,6.900650024E-2,1.507814484E0,5.828429718E0,6.020702566E0
6.154030600E1,-3.796105957E-1,3.419788513E0,5.613177338E0,6.583830003E0
6.174069096E1,-4.592449951E-1,3.645668793E0,1.210802124E1,1.265329938E1
6.194107496E1,-8.110134888E-1,1.085692291E0,9.160500641E0,9.260196684E0
6.214145896E1,-5.246589661E-1,4.933740234E0,9.097182312E0,1.036222880E1
6.234184396E1,-1.335223389E-1,-7.485932922E-1,1.169398224E1,1.171867914E1
6.254222796E1,-1.098864899E0,2.253264313E0,6.122867432E0,6.616208107E0
6.274261250E1,-1.324745178E0,2.548450470E0,1.260408966E1,1.292720487E1
6.294299650E1,-8.991801453E-1,1.607207794E0,7.234006805E0,7.464750250E0
6.314338050E1,-9.681866455E-1,3.517535248E0,6.670129395E0,7.602701213E0
6.334376450E1,2.689906311E-1,3.002456360E0,1.305495209E1,1.339846537E1
6.354414850E1,1.432521057E-1,1.967807922E0,6.492748260E0,6.785909604E0
6.374453138E1,-1.210083618E0,2.133513336E0,1.255873398E1,1.279601425E1
6.394491437E1,-2.437531128E0,-6.173162842E-1,1.468341568E1,1.489715857E1
6.414529838E1,7.060816956E-1,2.215542755E0,5.170398102E0,5.669232540E0
6.434568238E1,-8.767268372E-1,2.432441711E0,1.253418503E1,1.279809427E1
6.454606538E1,-2.233355713E-1,1.025816803E0,7.192243652E0,7.268462537E0
6.474644946E1,-1.339264984E0,2.471809845E0,6.171665955E0,6.781809144E0
6.494683246E1,-9.080117798E-1,2.718945923E0,1.358978989E1,1.388882794E1
6.514721546E1,-1.806742859E-1,1.305884399E0,9.330097961E0,9.422775877E0
6.534759946E1,-2.245330811E-1,4.250111847E0,7.285799103E0,8.437815735E0
6.554798246E1,-7.774832153E-1,3.327131195E0,1.199171310E1,1.246898012E1
6.574836658E1,5.328918457E-1,2.447410583E0,5.947132874E0,6.453075368E0
6.594874958E1,6.680607605E-1,2.947221222E0,9.012907562E0,9.506046541E0
6.614913258E1,-4.222718811E-1,2.070793762E0,1.449989731E1,1.465310623E1
6.634951558E1,5.840853882E-1,2.024090881E0,5.359454956E0,5.758633263E0
6.654989858E1,-9.648934937E-1,2.325863342E0,1.562301178E1,1.582463765E1
6.675028138E1,1.133143616E0,1.372046814E0,7.090305634E0,7.310195681E0
6.695066437E1,-1.504371643E0,2.586321716E0,5.935008087E0,6.646541586E0
6.715104738E1,-1.632804565E0,2.273771667E0,1.339384735E1,1.368324652E1
6.735142938E1,-4.969665527E-1,7.764353943E-1,9.883646851E0,9.926545358E0
6.755181237E1,-5.864804077E-1,4.145778809E0,7.829917603E0,8.879135705E0
6.775219396E1,-1.541793823E-2,1.756896515E0,1.345521973E1,1.356944586E1
6.795257696E1,-4.971162415E-1,1.621278534E0,5.295388184E0,5.560288181E0
6.815295896E1,-1.334774323E0,2.004930725E0,1.345192657E1,1.366585886E1
6.835334196E1,-3.803291016E0,-3.583547974E-1,1.119312378E1,1.182706475E1
6.855372396E1,6.706054688E-2,1.700314178E0,4.749473419E0,5.045102891E0
6.875410583E1,-1.505419464E0,2.909948730E0,1.527603333E1,1.562342099E1
6.895448783E1,5.424719238E-1,2.510279846E0,6.143075409E0,6.658314815E0
6.915486983E1,-4.610412598E-1,2.703827362E0,7.472311249E0,7.959816383E0
6.935525183E1,-1.360520782E0,2.737806702E0,1.188259003E1,1.226957815E1
6.955563383E1,1.287322998E-2,1.799408112E0,7.454647980E0,7.668755556E0
6.975601571E1,5.200186157E-1,4.687502289E0,1.032971924E1,1.135544788E1
6.995639771E1,-7.484436035E-4,8.428971863E-1,1.460078751E1,1.462509733E1
7.015677971E1,-1.083746338E-1,2.854863281E0,6.107599182E0,6.742755904E0
7.035716171E1,-8.117619324E-1,2.984344025E0,1.141181900E1,1.182348847E1
7.055754271E1,-1.889371033E0,-3.028202820E-1,9.064849548E0,9.264605785E0
7.075792533E1,-1.411864014E0,1.882934418E0,7.371271362E0,7.737857812E0
7.095830733E1,-8.452922058E-1,3.079396362E0,1.302845718E1,1.341409324E1
7.115868833E1,1.266965332E0,2.826272736E0,6.603966980E0,7.294203082E0
7.135906933E1,-1.832189941E-1,3.143463135E0,9.611213379E0,1.011386930E1
7.155945133E1,4.686753845E-1,2.783162384E0,1.478176117E1,1.504879107E1
7.175983221E1,7.214996338E-2,1.784588928E0,5.971981201E0,6.233339613E0
7.196021321E1,-4.860392761E-1,2.231110382E0,1.212822922E1,1.234131402E1
7.216059421E1,4.532574463E-1,6.616241455E-1,9.743238831E0,9.776190042E0
7.236097521E1,-1.279838562E0,2.276166687E0,4.707111511E0,5.382919311E0
7.256135621E1,-9.277706909E-1,2.297422485E0,1.447205521E1,1.468261865E1
7.276173671E1,-6.219566345E-1,7.114704895E-1,8.477021942E0,8.529532304E0
7.296211771E1,2.656974792E-1,3.068918152E0,8.016729126E0,8.588177901E0
7.316249871E1,-2.797682190E-1,2.138752441E0,1.449211349E1,1.465175368E1
7.336287971E1,1.052311707E-1,1.449735260E0,6.331982574E0,6.496676785E0
7.356326071E1,1.151106262E-1,2.542762299E0,9.435329132E0,9.772631498E0
7.376364121E1,-2.812651062E-1,5.947132874E-1,1.547467026E1,1.548864789E1
7.396402221E1,-6.959028625E-1,1.890867920E0,4.389172668E0,4.829544388E0
7.416440221E1,-7.047344971E-1,1.711241455E0,1.184187469E1,1.198561614E1
7.436478321E1,1.015488281E0,8.220904541E-1,9.100026398E0,9.193341591E0
7.456516321E1,-4.773573303E-1,2.423161011E0,5.896089020E0,6.392452193E0
7.476554238E1,-1.642085266E-1,3.398832092E0,1.183648590E1,1.231590121E1
7.496592337E1,-4.412823486E-1,1.474433899E0,9.377698975E0,9.503153345E0
7.516630338E1,1.904040527E-1,3.805386658E0,6.677015076E0,7.687636284E0
7.536668338E1,-1.152603149E-2,3.050356750E0,1.287188278E1,1.322838522E1
7.556706338E1,3.591032410E-1,1.758543091E0,5.663173370E0,5.940787958E0
7.576744400E1,-9.494755554E-1,2.401755524E0,1.286679337E1,1.312342581E1
7.596782400E1,-1.710193634E0,5.251080322E-1,1.256472153E1,1.269144309E1
7.616820400E1,1.120719452E0,2.473905487E0,3.227288818E0,4.218010617E0
7.636858400E1,-6.563850403E-1,1.857187958E0,1.565100357E1,1.577446992E1
7.656896300E1,2.505789185E-1,1.308878174E0,6.999893646E0,7.125620178E0
7.676934258E1,-1.061742096E0,2.801574097E0,6.533762970E0,7.187918492E0
7.696972258E1,1.231938171E-1,3.429368591E0,1.271890091E1,1.317369295E1
7.717010158E1,4.984634399E-2,1.381926270E0,6.422394562E0,6.569578128E0
7.737048158E1,-8.482859802E-1,3.625011749E0,9.456435242E0,1.016289657E1
7.757086058E1,7.294331360E-1,3.893403625E-1,1.422237442E1,1.424638876E1
7.777124121E1,-7.110214233E-1,1.797162781E0,4.460424500E0,4.861145157E0
7.797162021E1,-1.360670471E0,1.679507446E0,1.414932632E1,1.431347634E1
7.817199921E1,-1.545386353E0,6.601272583E-2,9.927206268E0,1.004698965E1
7.837237821E1,-5.454656982E-1,3.540737000E0,5.915099487E0,6.915399719E0
7.857275721E1,1.466949463E0,2.732118530E0,1.312246170E1,1.348389460E1
7.877313550E1,1.397493896E0,1.533710632E0,6.420747986E0,6.747685692E0
7.897351450E1,5.923182678E-1,3.890260162E0,7.604935455E0,8.562710338E0
7.917389350E1,6.078858948E-1,2.946472778E0,1.343561050E1,1.376832803E1
7.937427250E1,6.286926270E-2,1.148711243E0,6.321055298E0,6.424891450E0
7.957465150E1,8.316705322E-1,4.353696442E0,1.018556900E1,1.110820257E1
7.977503037E1,6.944059753E-1,4.640350342E-1,1.139206009E1,1.142263373E1
7.997540938E1,-1.406475220E0,2.117346954E0,4.000730438E0,4.739955138E0
8.017578738E1,-1.387614441E-1,2.705773315E0,1.339160202E1,1.366292314E1
8.037616638E1,-6.343807983E-1,8.909472656E-1,8.591084747E0,8.660425114E0
8.057654438E1,-1.231938171E-1,3.196153564E0,6.043083344E0,6.837355528E0
8.077692408E1,1.249900818E-1,3.294349365E0,1.265588196E1,1.307821503E1
8.097730208E1,1.341809692E0,2.358345795E0,6.366710358E0,6.920783837E0
8.117768008E1,5.992039490E-1,2.722089386E0,1.059421921E1,1.095473855E1
8.137805908E1,-4.086502075E-2,-7.825726318E-1,1.602717133E1,1.604631766E1
8.157843708E1,-8.487350464E-2,2.292183380E0,3.995641022E0,4.607217743E0
8.177881550E1,-4.775070190E-2,1.027912445E0,1.353964417E1,1.357869096E1
8.197919350E1,1.228794708E0,5.703140259E-1,6.783294067E0,6.917244605E0
8.217957150E1,-4.161346436E-1,2.606230316E0,5.854475555E0,6.421875780E0
8.237994950E1,-7.352709961E-1,1.229543152E0,1.570144867E1,1.576667023E1
8.258032750E1,-7.929011536E-1,9.680369568E-1,9.877359924E0,9.956305884E0
8.278070513E1,1.154100037E-1,3.006797333E0,5.476212158E0,6.248443748E0
8.298108313E1,1.555265808E0,4.508175201E0,1.470407272E1,1.545808041E1
8.318146113E1,1.362317047E0,2.080074463E0,6.075266418E0,6.564410070E0
8.338183912E1,-7.400610352E-1,2.344275055E0,1.117366425E1,1.144089544E1
8.358221713E1,-1.144669647E0,-1.214723969E0,1.603241043E1,1.611905727E1
8.378259438E1,1.706451416E-1,2.120789795E0,4.141437836E0,4.656004346E0
8.398297238E1,-8.134085083E-1,2.258952484E0,1.368828506E1,1.389725324E1
8.418335038E1,4.540058899E-1,5.680686951E-1,6.009852448E0,6.053688944E0
8.438372737E1,-6.089337158E-1,2.523751831E0,5.450166321E0,6.036922767E0
8.458410538E1,-2.329156494E-1,3.060984650E0,1.358320358E1,1.392577812E1
8.478448188E1,-3.977229309E-1,1.385967865E0,8.317902832E0,8.441954630E0
8.498485988E1,8.861572266E-2,3.864064636E0,7.695347443E0,8.611458676E0
8.518523687E1,7.351213074E-1,3.103795624E0,1.298834061E1,1.337426418E1
8.538561387E1,1.847158813E-1,1.444346466E0,5.313201141E0,5.509116357E0
8.558599088E1,-1.210832062E0,1.385518799E0,1.438029602E1,1.449754083E1
8.578636833E1,-2.697839813E0,-1.526974640E0,1.513562531E1,1.544982668E1
8.598674633E1,3.576063538E-1,2.358794861E0,4.675227814E0,5.248766580E0
8.618712333E1,-5.375321960E-1,1.738784180E0,1.393227768E1,1.405064670E1
8.638750033E1,1.034648438E0,1.017134857E0,6.036047974E0,6.207973570E0
8.658787633E1,-9.651928711E-1,2.345771942E0,6.393205261E0,6.878031462E0
8.678825271E1,-1.874851227E0,3.304228821E0,1.027553192E1,1.095534351E1
8.698862971E1,-3.685336304E-1,6.643185425E-1,8.963360596E0,8.995497170E0
8.718900671E1,-1.089135132E0,3.259920959E0,8.964258728E0,9.600585114E0
8.738938371E1,1.606159973E0,1.449136505E0,1.492037292E1,1.507638135E1
8.758975971E1,5.108876038E-1,1.879940643E0,5.076692963E0,5.437646035E0
8.779013721E1,-6.030958557E-1,1.718875580E0,1.479508347E1,1.490680223E1
8.799051421E1,-2.298021240E0,-2.026186523E0,1.130568970E1,1.171345180E1
8.819089021E1,-5.812413025E-1,1.783541107E0,5.074148254E0,5.409791201E0
8.839126721E1,-7.351213074E-1,1.788630524E0,1.502844818E1,1.515235484E1
8.859164321E1,8.804690552E-1,1.844165039E0,6.270909576E0,6.595489168E0
8.879202058E1,-1.047821045E-1,2.441123657E0,7.772586823E0,8.147586754E0
8.899239658E1,-6.876699829E-1,4.203858032E0,1.341300751E1,1.407316890E1
8.919277258E1,2.077679443E-1,1.572180634E0,7.390431519E0,7.558663737E0
8.939314958E1,2.037263489E-1,3.602708130E0,1.048509613E1,1.108865416E1
8.959352558E1,1.796264648E-1,1.484912109E-1,1.446232544E1,1.446420314E1
8.979390096E1,1.751358032E-1,1.839524689E0,3.823498993E0,4.246606666E0
8.999427696E1,-7.933502197E-1,1.522334290E0,1.469988144E1,1.479977772E1
9.019465296E1,-1.652862854E0,3.897894287E-1,7.218439178E0,7.415507777E0
9.039502896E1,4.059558105E-1,2.918480988E0,6.330335999E0,6.982512818E0
9.059540496E1,-6.572831726E-1,3.319197693E0,1.117231705E1,1.167346404E1
9.079578071E1,4.981640625E-1,2.158361664E0,6.608607330E0,6.969962938E0
9.099615671E1,6.812333679E-1,2.948867798E0,9.446106720E0,9.919114495E0
9.119653271E1,-2.445913696E-1,1.291514282E0,1.481903366E1,1.487721724E1
9.139690871E1,-4.939727783E-3,1.645827484E0,5.010530548E0,5.273915896E0
9.159728471E1,-5.134323120E-1,2.356399841E0,1.341285782E1,1.362794877E1
9.179765988E1,1.146615601E-1,6.411167908E-1,7.129374390E0,7.159061195E0
9.199803588E1,-7.259902954E-1,2.869532776E0,5.287155304E0,6.059314439E0
9.219841188E1,-4.956193542E-1,2.441123657E0,1.490181152E1,1.510856413E1
9.239878687E1,-9.692344666E-1,1.189426575E0,8.350834351E0,8.490617491E0
9.259916288E1,-1.576222229E-1,3.520978088E0,5.873635712E0,6.849943645E0
9.279953825E1,2.722688141E0,3.805985413E0,1.427611267E1,1.502351319E1
9.299991425E1,3.857478333E-1,1.475930786E0,7.350464630E0,7.507096866E0
9.320028925E1,6.054908752E-1,2.449506226E0,1.149115402E1,1.176491907E1
9.340066425E1,-1.635498962E0,-2.158062286E0,1.428838715E1,1.454269909E1
9.360104025E1,-4.519102478E-1,1.761536865E0,4.825964355E0,5.157244125E0
9.380141496E1,-7.167095947E-1,1.726958771E0,1.387015686E1,1.399561755E1
9.400178996E1,8.307723999E-2,-3.881428528E-1,6.749015350E0,6.760677843E0
9.420216496E1,-1.056502991E0,2.060465240E0,7.229216766E0,7.591000634E0
9.440253996E1,2.619552612E-2,3.089724884E0,1.106259521E1,1.148599578E1
9.460291496E1,-1.462458801E-1,1.099014587E0,8.849297791E0,8.918480381E0
9.480328958E1,4.592449951E-1,3.947441254E0,8.851543121E0,9.702732298E0
9.500366458E1,1.525028687E0,1.320404205E0,1.366897522E1,1.381702078E1
9.520403958E1,-2.993774414E-2,1.656156006E0,5.532794495E0,5.775427595E0
9.540441458E1,-1.348695374E-1,1.617087250E0,1.267638931E1,1.277982813E1
9.560478958E1,-2.653232574E0,-6.896159363E-1,1.001686981E1,1.038522480E1
9.580516350E1,-4.799020386E-1,2.286195831E0,6.136638794E0,6.566226697E0
9.600553850E1,-1.656156006E0,2.018702087E0,1.391700943E1,1.415984330E1
9.620591350E1,5.569917297E-1,1.752106476E0,7.322323151E0,7.549604838E0
9.640628750E1,-6.885681152E-3,2.860252075E0,7.650440826E0,8.167639450E0
9.660666250E1,1.556912384E0,3.526965637E0,1.488055573E1,1.537187046E1
9.680703738E1,-6.824308777E-1,1.247954865E0,7.578590240E0,7.710910016E0
9.700741237E1,3.243754578E-1,4.312382355E0,9.811496887E0,1.072228204E1
9.720778638E1,3.035687256E-1,-1.074914703E0,1.585712494E1,1.589641491E1
9.740816037E1,-6.248007202E-1,1.641187134E0,6.213429108E0,6.456823710E0
9.760853537E1,-6.843768311E-1,2.610271912E0,1.188932602E1,1.219171704E1
9.780890846E1,-5.034031677E-1,1.277443542E0,7.765701141E0,7.886151848E0
9.800928246E1,-5.819897461E-1,3.243155823E0,5.535039825E0,6.441540004E0
9.820965646E1,-1.966909790E-1,3.802542572E0,1.187884781E1,1.247417503E1
9.841003046E1,8.060737610E-1,1.866169281E0,6.448290710E0,6.761123855E0
9.861040446E1,4.590953064E-1,2.668051758E0,1.153935379E1,1.185267711E1
9.881077921E1,-1.203946381E0,1.463955688E-1,1.685779404E1,1.690136498E1
9.901115321E1,-3.430865479E-1,1.949545898E0,4.580923920E0,4.990320786E0
9.921152721E1,-1.588197327E-1,2.653232574E0,1.197988770E1,1.227120923E1
9.941190121E1,1.104553070E0,6.435118103E-1,7.577692108E0,7.684761715E0
9.961227521E1,-6.433621216E-1,2.776276703E0,5.464386749E0,6.162884852E0
9.981264825E1,-8.141569519E-1,2.570305023E0,1.432790497E1,1.457937517E1
1.000130223E2,-6.245013428E-1,1.082848206E0,9.368418274E0,9.451445557E0
1.002133963E2,-3.480262756E-1,3.530408478E0,7.270680542E0,8.089975393E0
1.004137693E2,1.639091492E0,3.357068939E0,1.290511368E1,1.343497271E1
1.006141433E2,4.652325439E-1,1.758094025E0,5.927074585E0,6.199802340E0
1.008145156E2,-2.025288391E-1,2.155068512E0,1.289328827E1,1.307372252E1
1.010148896E2,-2.033970337E0,-7.872129822E-1,1.306468185E1,1.324547665E1
1.012152626E2,-4.593946838E-1,1.974693604E0,5.017715607E0,5.411832242E0
1.014156366E2,-8.184979248E-1,2.402354279E0,1.467578156E1,1.489361639E1
1.016160096E2,1.475481720E0,2.036664734E0,8.197403412E0,8.574524607E0
1.018163826E2,-5.948629761E-1,3.444487152E0,6.769971771E0,7.619112250E0
1.020167556E2,-1.618135071E0,3.704197083E0,1.247580643E1,1.311431215E1
1.022171296E2,3.222798157E-1,1.629810791E0,7.743696899E0,7.919910932E0
1.024175026E2,-5.358856201E-2,3.879332886E0,8.545729065E0,9.385178774E0
1.026178756E2,-2.926414490E-1,-1.892215118E0,1.778152313E1,1.788431385E1
1.028182495E2,-5.375321960E-1,2.038311310E0,4.705165558E0,5.155796426E0
1.030186225E2,-5.010081482E-1,2.917882233E0,1.230770599E1,1.265877848E1
1.032189955E2,-2.270628204E0,2.059716797E-1,8.320597229E0,8.627312155E0
1.034193675E2,-4.541555786E-1,2.581381989E0,5.563929749E0,6.150374339E0
1.036197405E2,-1.886077881E-2,3.467239838E0,1.253253845E1,1.300333141E1
1.038201126E2,3.592529297E-1,2.053130493E0,6.634952545E0,6.954638939E0
1.040204856E2,-1.703457642E-1,2.636916504E0,9.620943146E0,9.977218718E0
1.042208576E2,-1.121018829E0,3.362308044E0,1.157617722E1,1.210659645E1
1.044212306E2,-1.082249451E-1,1.469194794E0,7.690557404E0,7.830384356E0
1.046216036E2,-2.736309814E-1,4.040697327E0,8.474327545E0,9.392355197E0
1.048219762E2,6.436614990E-3,2.963836670E-1,1.478161148E1,1.478458395E1
1.050223492E2,-1.199006653E-1,2.053878937E0,4.864284668E0,5.281482764E0
1.052227212E2,8.038284302E-2,1.125359802E0,1.565100357E1,1.569161588E1
1.054230932E2,-2.084116058E0,3.035687256E-1,8.245902557E0,8.510617058E0
1.056234662E2,-3.454815674E-1,1.989961853E0,6.601122894E0,6.903197024E0
1.058238377E2,-7.821235657E-1,1.708846436E0,1.432206711E1,1.444484267E1
1.060242097E2,1.055305481E0,2.187850342E0,7.072642365E0,7.478143405E0
1.062245817E2,-5.364843750E-1,2.855162659E0,7.599995728E0,8.136320074E0
1.064249547E2,-6.783892822E-1,4.255650330E0,1.137349869E1,1.216253445E1
1.066253267E2,-3.908372498E-1,1.691332855E0,7.299271088E0,7.502847392E0
1.068256986E2,2.267784119E-1,3.418291626E0,9.672436066E0,1.026119708E1
1.070260706E2,1.028960266E0,5.472619629E-1,1.615470612E1,1.619669054E1
1.072264426E2,2.025288391E-1,2.371069336E0,5.428162079E0,5.926882088E0
1.074268136E2,-5.275030518E-1,2.544109497E0,1.158396103E1,1.187176928E1
1.076271856E2,-1.913620605E0,4.565505981E-2,8.688831482E0,8.897180493E0
1.078275585E2,-4.254153442E-1,2.294129333E0,6.699318695E0,7.094003002E0
1.080279305E2,-1.529818726E-1,2.722538452E0,1.262564484E1,1.291675372E1
1.082283025E2,1.378782806E0,2.140997772E0,5.850883026E0,6.381045813E0
1.084286735E2,-9.580078125E-3,2.607278137E0,1.030217651E1,1.062698603E1
1.086290455E2,8.922944641E-1,2.110311584E0,1.479912506E1,1.497543679E1
1.088294161E2,4.689747620E-1,1.698966980E0,5.142556000E0,5.436203486E0
1.090297881E2,-4.387376404E-1,3.149001617E0,1.194635742E1,1.236220682E1
1.092301591E2,5.077441406E-1,2.793191528E-1,8.882528687E0,8.901412201E0
1.094305311E2,-7.800279236E-1,2.639012146E0,4.501588898E0,5.276090529E0
1.096309021E2,-9.975256348E-1,1.890568542E0,1.432685715E1,1.448544589E1
1.098312730E2,-5.542973328E-1,1.819017334E0,8.043673096E0,8.265394514E0
1.100316450E2,1.683998108E-1,3.366050262E0,7.393275604E0,8.125218583E0
1.102320160E2,2.255809021E-1,1.433419189E0,1.546703613E1,1.553495362E1
1.104323870E2,-9.520202637E-2,1.364113312E0,5.805826721E0,5.964687123E0
1.106327580E2,3.394940186E-1,2.341131592E0,1.125554398E1,1.150145310E1
1.108331292E2,-1.444496155E0,3.311114502E-1,1.418644913E1,1.426364409E1
1.110335002E2,-1.498384094E-1,1.612446899E0,5.384003906E0,5.622271304E0
1.112338712E2,-1.001417542E0,1.932930450E0,1.511496826E1,1.527093065E1
1.114342422E2,-5.405259705E-1,5.516029358E-1,6.796915741E0,6.840650387E0
1.116346132E2,-1.951940918E-1,2.717449036E0,6.660848694E0,7.196494655E0
1.118349840E2,-5.016069031E-1,3.873495026E0,1.337738159E1,1.393592162E1
1.120353550E2,-1.984872437E-1,1.565145264E0,6.423592072E0,6.614500131E0
1.122357250E2,-1.544787598E-1,3.779340820E0,9.973609772E0,1.066677892E1
1.124360960E2,3.830534363E-1,2.809657288E-1,1.621443192E1,1.622138940E1
1.126364670E2,1.416055298E-1,2.368374939E0,4.787494354E0,5.343159568E0
1.128368372E2,-8.241860962E-1,2.730172577E0,1.485959930E1,1.513079035E1
1.130372082E2,-1.300345917E0,-4.580474854E-2,8.309071198E0,8.410330656E0
1.132375782E2,-1.463506622E0,2.387385406E0,7.108268280E0,7.639956718E0
1.134379492E2,6.209088135E-1,2.217339020E0,1.097457825E1,1.121354038E1
1.136383192E2,4.550537109E-1,2.161505127E0,6.763086090E0,7.114668773E0
1.138386893E2,2.401007080E-1,2.676733704E0,1.003183868E1,1.038558323E1
1.140390603E2,9.898915100E-1,2.129471741E0,1.596250580E1,1.613431518E1
1.142394303E2,-6.007008362E-1,1.341061249E0,5.887556763E0,6.068163759E0
1.144398003E2,-9.385482788E-2,3.274440765E0,1.228689926E1,1.271607898E1
1.146401703E2,-7.319778442E-2,-1.028361511E0,1.072579559E1,1.077522976E1
1.148405398E2,-2.113604736E0,1.946552124E0,5.829028473E0,6.498766275E0
1.150409098E2,1.455273743E0,5.504802704E0,1.150268005E1,1.283480903E1
1.152412798E2,-2.709365845E-1,1.391656036E0,7.218588867E0,7.356503136E0
1.154416498E2,-5.391787720E-1,3.152444458E0,8.053851929E0,8.665630427E0
1.156420198E2,9.720785522E-1,3.461551666E0,1.335388046E1,1.382943961E1
1.158423904E2,1.007704468E0,2.459535370E0,5.011578369E0,5.672803564E0
1.160427604E2,5.044509888E-1,3.459306335E0,1.199755096E1,1.249649952E1
1.162431304E2,-8.419990540E-1,7.334747314E-2,1.546823364E1,1.549130706E1
1.164434994E2,-2.380050659E-1,1.982477417E0,4.844825134E0,5.240152069E0
1.166438694E2,1.478924561E-1,3.328029327E0,1.215367630E1,1.260196409E1
1.168442390E2,-2.607577515E-1,1.400637360E0,6.827601929E0,6.974663269E0
1.170446080E2,-2.454895020E-2,3.327430573E0,7.027885437E0,7.775832469E0
1.172449780E2,-7.369175720E-1,2.837948456E0,1.249451752E1,1.283393809E1
1.174453470E2,-4.504133606E-1,1.788630524E0,7.409292297E0,7.635422954E0
1.176457170E2,-4.173321533E-1,4.082610168E0,8.360264740E0,9.313210963E0
1.178460859E2,2.986289978E-1,2.496209106E0,1.224229202E1,1.249775792E1
1.180464559E2,8.773255920E-1,1.854343872E0,4.987328796E0,5.392748827E0
1.182468249E2,-7.918533325E-2,2.934048615E0,1.125359802E1,1.163006363E1
1.184471939E2,-1.638792114E0,3.784130859E-1,1.394889313E1,1.404992724E1
1.186475629E2,-6.813830566E-1,1.306333466E0,6.984775085E0,7.138478338E0
1.188479336E2,-2.968626709E0,2.129022675E0,1.459390182E1,1.504418335E1
1.190483026E2,1.068777466E0,8.162525940E-1,5.702691193E0,5.859116009E0
1.192486716E2,-5.513035583E-1,3.062631226E0,7.437583466E0,8.062337964E0
1.194490406E2,-1.889371033E0,3.254532166E0,1.325149338E1,1.377547746E1
1.196494096E2,-7.394622803E-2,3.470233612E0,5.455704803E0,6.466274373E0
1.198497775E2,-2.763253784E-1,3.727847900E0,9.404792633E0,1.012044120E1
1.200501465E2,-4.632865906E-1,-1.886077881E-2,1.628119308E1,1.628779416E1
1.202505145E2,-7.679031372E-1,2.068847809E0,6.691235504E0,7.045739071E0
1.204508835E2,-2.195933533E-1,4.080664215E0,1.171209457E1,1.240456372E1
1.206512525E2,-2.566862183E0,5.433700562E-1,9.694290619E0,1.004307239E1
1.208516215E2,-3.619473267E-1,2.697989502E0,6.484365692E0,7.032577881E0
1.210519895E2,-8.592132568E-2,3.765419769E0,1.470317459E1,1.517791526E1
1.212523585E2,1.198856964E0,2.872676239E0,5.108726349E0,5.982358373E0
1.214527265E2,-5.462141418E-1,3.366050262E0,9.267079010E0,9.874583416E0
1.216530955E2,2.718347168E-1,3.943249969E0,1.309806244E1,1.368146023E1
1.218534641E2,-2.676434326E-1,1.532812500E0,4.735402679E0,4.984494528E0
1.220538331E2,-8.720864868E-1,4.842280426E0,1.342588074E1,1.429903801E1
1.222542011E2,1.724414062E-1,5.746549988E-1,7.942034454E0,7.964664191E0
1.224545691E2,-9.533674622E-1,3.169508972E0,5.544170837E0,6.456975059E0
1.226549381E2,-2.907853088E0,3.156036987E0,1.218286560E1,1.291659372E1
1.228553058E2,-1.555116119E0,2.186054077E0,5.684578857E0,6.285829727E0
1.230556738E2,-1.414109344E0,2.376308441E0,6.170169067E0,6.761474201E0
1.232560418E2,-1.981878662E-1,3.064128113E0,1.388752075E1,1.422291785E1
1.234564098E2,7.644602966E-1,2.590513000E0,4.226311340E0,5.015661940E0
1.236567778E2,-1.058448944E0,2.496807861E0,1.285421951E1,1.313717332E1
1.238571457E2,-2.259850616E0,4.282594299E-1,1.447370178E1,1.465531897E1
1.240575137E2,7.050338745E-2,2.341430969E0,4.005520477E0,4.640200858E0
1.242578817E2,-2.432441711E-1,2.934946747E0,1.509895157E1,1.538347875E1
1.244582497E2,-8.912466431E-1,2.457739105E0,8.094417572E0,8.506138837E0
1.246586177E2,-3.252735901E-1,2.678380280E0,6.347999268E0,6.897580629E0
1.248589851E2,-5.306465149E-1,4.591102753E0,1.555729843E1,1.622927431E1
1.250593531E2,-1.149160309E0,1.551224213E0,7.070696411E0,7.329502965E0
1.252597211E2,8.372090149E-1,4.147126007E0,9.102720795E0,1.003788319E1
1.254600881E2,5.542973328E-1,9.499246216E-1,1.501901779E1,1.505923297E1
1.256604561E2,-6.209088135E-1,1.710193634E0,5.796546021E0,6.075379477E0
1.258608231E2,1.233435059E-1,4.134701843E0,1.140463394E1,1.213163832E1
1.260611911E2,-2.160906372E0,4.836442566E-1,7.045997772E0,7.385764193E0
1.262615581E2,4.819976807E-2,2.991229706E0,6.232738953E0,6.913523937E0
1.264619261E2,-5.821394348E-1,3.170556793E0,1.158740387E1,1.202743718E1
1.266622931E2,7.394622803E-1,1.983525238E0,6.249803467E0,6.598577135E0
1.268626602E2,6.140231323E-1,2.417622528E0,1.039198975E1,1.068715930E1
1.270630282E2,9.592053223E-1,3.087629242E0,1.427386734E1,1.463546439E1
1.272633952E2,-9.894424438E-2,1.616488495E0,6.399043121E0,6.600801306E0
1.274637622E2,9.175918579E-2,3.593277740E0,1.320029984E1,1.368093492E1
1.276641292E2,-1.263372803E-1,1.284329224E-1,6.518195343E0,6.520684523E0
1.278644961E2,-8.638536072E-1,2.399959259E0,5.654042358E0,6.202760876E0
1.280648631E2,-1.131047974E0,2.841091919E0,1.305869431E1,1.341195622E1
1.282652301E2,1.363664246E-1,2.688110046E0,6.155200195E0,6.717962553E0
1.284655971E2,-2.865042114E-1,3.914958801E0,6.749763794E0,7.808219922E0
1.286659641E2,3.010988617E0,4.264481964E0,1.514415756E1,1.601865685E1
1.288663301E2,1.910028076E-1,1.930685120E0,5.116061096E0,5.471572739E0
1.290666971E2,4.492158508E-1,2.987786865E0,1.293355453E1,1.328177315E1
1.292670641E2,-2.971321106E0,-2.697390747E-1,1.236428833E1,1.271916405E1
1.294674311E2,6.005511475E-1,2.380350037E0,4.820126495E0,5.409283447E0
1.296677971E2,-5.981561279E-1,3.200045471E0,1.251113297E1,1.292774264E1
1.298681638E2,-1.392105103E-2,7.625143433E-1,9.433083801E0,9.463862421E0
1.300685298E2,-1.033001862E0,2.603086853E0,5.203928375E0,5.909655197E0
1.302688968E2,-1.812281342E0,2.691702576E0,1.385384079E1,1.422879233E1
1.304692628E2,-6.075865173E-1,2.029779053E0,7.330106964E0,7.630179060E0
1.306696298E2,-5.746549988E-1,3.495830383E0,9.282796326E0,9.935862623E0
1.308699961E2,5.071453857E-1,3.893403625E-1,1.449465820E1,1.450875249E1
1.310703631E2,-2.204914856E-1,1.753004608E0,5.761818237E0,6.026623520E0
1.312707291E2,1.496887207E-4,3.522774353E0,1.332618805E1,1.378394817E1
1.314710951E2,-2.867736511E0,-1.673669586E0,1.271246429E1,1.313894330E1
1.316714621E2,5.897735596E-2,2.236648865E0,5.983507233E0,6.388148032E0
1.318718282E2,3.200344849E-1,1.598825226E0,1.296169601E1,1.306385195E1
1.320721942E2,-8.503816223E-1,1.140927429E0,7.647896118E0,7.779150297E0
1.322725602E2,-6.471043396E-1,3.298540649E0,6.387068024E0,7.217600182E0
1.324729262E2,-1.235979767E0,3.222199402E0,1.437535629E1,1.478381154E1
1.326732922E2,9.699829102E-2,1.524280243E0,7.185807037E0,7.346336618E0
1.328736583E2,5.095404053E-1,4.752467194E0,8.467890930E0,9.723721132E0
1.330740243E2,1.110690308E-1,-2.887495422E-1,1.439945618E1,1.440277927E1
1.332743903E2,1.850152588E-1,2.561922455E0,6.103856964E0,6.622291684E0
1.334747563E2,1.661544800E-1,3.479065247E0,1.258418106E1,1.305730122E1
1.336751223E2,-1.366807709E0,5.284011841E-2,9.816436615E0,9.911275559E0
1.338754865E2,-9.505233765E-1,2.439327393E0,6.058950348E0,6.600355455E0
1.340758525E2,2.386038208E-1,3.785178680E0,1.255753647E1,1.311778303E1
1.342762185E2,3.291654968E-1,2.727328491E0,6.499035187E0,7.055786914E0
1.344765835E2,-6.500981140E-1,3.587739258E0,7.754175110E0,8.568648212E0
1.346769495E2,3.257226562E-1,5.650300140E0,1.160222305E1,1.290904980E1
1.348773158E2,4.412823486E-1,2.318678284E0,8.653504944E0,8.969623566E0
1.350776808E2,-1.061891785E0,3.982917480E0,9.804162140E0,1.063545209E1
1.352780458E2,4.595443726E-2,8.521778870E-1,1.197180450E1,1.200218405E1
1.354784118E2,-5.525010681E-1,2.416125641E0,6.531517639E0,6.985960436E0
1.356787768E2,-1.310973816E0,2.060914307E0,1.405142990E1,1.426214228E1
1.358791435E2,-1.952839050E0,8.864566040E-1,5.241350555E0,5.663138822E0
1.360795085E2,1.990859985E-2,3.529959412E0,6.499035187E0,7.395841275E0
1.362798735E2,1.630110168E-1,4.591102753E0,1.158246414E1,1.246026776E1
1.364802385E2,1.917662201E0,2.969824219E0,5.374573517E0,6.432987230E0
1.366806035E2,3.070115662E-1,2.940185852E0,9.801767120E0,1.023785073E1
1.368809678E2,-2.868035889E0,8.840615845E-1,1.466455490E1,1.496851246E1
1.370813338E2,6.128256226E-1,2.194586334E0,5.976471863E0,6.396091021E0
1.372816978E2,-7.012916565E-1,2.883753204E0,1.060349991E1,1.101099690E1
1.374820628E2,-5.794450378E-1,2.125579834E-1,1.199665283E1,1.201251916E1
1.376824278E2,1.302291870E-2,2.908601532E0,4.536466370E0,5.388845850E0
1.378827935E2,-3.249891815E0,1.256786499E0,1.435020859E1,1.476718645E1
1.380831585E2,-6.342311096E-1,1.823957062E0,8.422984314E0,8.641512207E0
1.382835235E2,-4.093986511E-1,3.964056702E0,5.653892670E0,6.917214404E0
1.384838885E2,8.050259399E-1,4.739893341E0,1.267025208E1,1.355175056E1
1.386842525E2,9.352551270E-1,2.238744507E0,5.149741058E0,5.692671788E0
1.388846171E2,-9.879455566E-2,1.798509979E0,1.241024277E1,1.254027608E1
1.390849821E2,-3.847000122E-1,1.354832611E0,1.465886673E1,1.472636884E1
1.392853461E2,3.053649902E-2,2.069895630E0,5.041965179E0,5.450395698E0
1.394857111E2,-1.366658020E-1,2.776426392E0,1.382001114E1,1.409680563E1
1.396860751E2,7.729925537E-1,7.934999084E-1,7.152725830E0,7.238000165E0
1.398864401E2,-7.670050049E-1,2.545456696E0,5.094356232E0,5.746312895E0
1.400868041E2,-1.053808594E-1,2.931653595E0,1.390727966E1,1.421330804E1
1.402871681E2,-1.400787048E0,6.891668701E-1,9.181906128E0,9.313675723E0
1.404875331E2,-2.918930054E-2,3.598217468E0,6.913074188E0,7.793498296E0
1.406878971E2,9.505233765E-2,3.749702454E0,1.223346039E1,1.279557957E1
1.408882610E2,2.627037048E-1,2.102527771E0,3.931424561E0,4.466064861E0
1.410886250E2,-6.233038330E-1,2.337239685E0,1.194261520E1,1.218512433E1
1.412889900E2,-2.927462311E0,1.960922241E-1,1.308339294E1,1.340834288E1
1.414893540E2,6.251000977E-1,2.482886810E0,4.189637604E0,4.910044836E0
1.416897180E2,-8.878038025E-1,2.240840149E0,1.563813034E1,1.582278992E1
1.418900813E2,4.764591980E-1,1.457219696E0,6.285429382E0,6.469708272E0
1.420904453E2,-1.303788757E0,2.966082001E0,6.427633667E0,7.198054051E0
1.422908093E2,2.640509033E-1,4.162543945E0,1.346629669E1,1.409743386E1
1.424911733E2,-1.087488556E0,1.086889801E0,8.017627258E0,8.163718984E0
1.426915363E2,-7.798782349E-2,4.285438385E0,7.898025970E0,8.986093616E0
1.428919013E2,-5.261558533E-1,-1.866618347E-1,1.655572220E1,1.656513266E1
1.430922653E2,-7.985893250E-1,1.562001801E0,5.000351715E0,5.299161425E0
1.432926293E2,-1.033750305E0,2.717598724E0,1.293190796E1,1.325474353E1
1.434929923E2,-2.937341766E0,-1.720971222E0,1.156330399E1,1.205403325E1
1.436933563E2,-3.388952637E-1,2.546803894E0,4.192332001E0,4.916981562E0
1.438937203E2,2.854563904E-1,2.312541046E0,1.436622528E1,1.455396029E1
1.440940833E2,-7.171586609E-1,8.907975769E-1,7.377707977E0,7.465816222E0
1.442944473E2,-1.098715210E0,3.222947845E0,6.261628876E0,7.127591746E0
1.444948103E2,7.899073792E-1,4.537364502E0,1.107472000E1,1.199420916E1
1.446951733E2,-1.284179535E0,1.061293030E0,9.044791260E0,9.196940193E0
1.448955365E2,-1.199006653E-1,4.435127106E0,8.261619873E0,9.377584526E0
1.450958995E2,4.079017639E-1,1.396446075E0,1.400068542E1,1.407606614E1
1.452962635E2,-3.472778320E-2,1.702110443E0,4.832251282E0,5.123381542E0
1.454966265E2,-6.514453125E-1,2.784210205E0,1.270348297E1,1.302131664E1
1.456969895E2,-2.996917877E0,-1.913470917E0,1.458851303E1,1.501557858E1
1.458973532E2,-1.188229065E0,2.272424469E0,5.989943848E0,6.515767689E0
1.460977162E2,-4.490661621E-4,2.474354553E0,1.405367523E1,1.426983595E1
1.462980792E2,-4.116439819E-1,9.009764099E-1,8.949738922E0,9.004389820E0
1.464984422E2,-1.011147308E0,3.082539825E0,5.889951782E0,6.724284546E0
1.466988052E2,1.336570587E0,4.697232056E0,1.228959366E1,1.322439118E1
1.468991683E2,-5.992039490E-1,1.349892883E0,7.950566711E0,8.086579450E0
1.470995313E2,-1.442999268E-1,3.790717163E0,8.960217133E0,9.730151599E0
1.472998943E2,4.553530884E-1,2.006577301E0,1.371313339E1,1.386664077E1
1.475002573E2,3.427871704E-2,2.368973694E0,5.249134369E0,5.759047058E0
1.477006203E2,3.908372498E-1,3.120411072E0,1.162796951E1,1.204572098E1
1.479009827E2,-2.051184540E0,-1.651066589E-1,1.473041794E1,1.487346062E1
1.481013447E2,-7.280859375E-1,1.858535156E0,6.132297821E0,6.448979658E0
1.483017077E2,-3.254232788E-1,2.524500275E0,1.299313065E1,1.324010747E1
1.485020707E2,-1.564546509E0,2.218386841E-1,8.034093018E0,8.188019834E0
1.487024327E2,-1.039288788E0,2.316882019E0,6.726711731E0,7.190042711E0
1.489027964E2,-1.818119202E0,2.666255493E0,1.579395630E1,1.612028323E1
1.491031584E2,-2.561174011E-1,1.425485687E0,8.190368042E0,8.317435556E0
1.493035214E2,-3.891906738E-1,3.792064362E0,8.235574036E0,9.075015218E0
1.495038834E2,2.297721863E-1,2.137704620E0,1.289643173E1,1.307442265E1
1.497042454E2,8.794212341E-1,2.031575317E0,4.864434357E0,5.344473930E0
1.499046078E2,-5.664221191E-1,2.298320618E0,1.466066299E1,1.485052696E1
1.501049698E2,-2.532733154E0,-1.195414124E0,1.182615738E1,1.215326090E1
1.503053318E2,-1.999841309E-1,1.981878662E0,4.518354034E0,4.937950978E0
1.505056937E2,3.766168213E-1,2.954256592E0,1.577898743E1,1.605758128E1
1.507060568E2,1.090182953E0,1.409468994E0,6.353687439E0,6.598821545E0
1.509064187E2,-1.484762421E0,2.662812653E0,6.899901581E0,7.543456270E0
1.511067807E2,1.248403931E-1,4.279151459E0,1.328951431E1,1.396201680E1
1.513071427E2,2.052232361E-1,8.463400269E-1,6.813231812E0,6.868663315E0
1.515075047E2,7.285350037E-1,4.194427643E0,9.424252167E0,1.034120474E1
1.517078667E2,8.156538391E-1,-3.079096985E-1,1.553828796E1,1.556272767E1
1.519082293E2,2.055226135E-1,2.020498352E0,3.348237305E0,3.916037051E0
1.521085903E2,-2.009571075E0,1.598525848E0,1.541105255E1,1.562351438E1
1.523089523E2,-2.716401215E0,-1.384620667E0,1.087533463E1,1.129464090E1
1.525093143E2,-9.512718201E-1,2.218985596E0,5.650449829E0,6.144623538E0
1.527096763E2,-9.006770325E-1,2.338886261E0,1.560190567E1,1.580193243E1
1.529100372E2,6.119274902E-1,1.612895966E0,7.492369537E0,7.688399699E0
1.531103992E2,-6.147715759E-1,3.277135162E0,5.951473846E0,6.821847250E0
1.533107612E2,-6.851252747E-1,5.020110626E0,1.297247360E1,1.392680792E1
1.535111222E2,7.506889343E-1,1.933229828E0,5.070705414E0,5.478408970E0
1.537114842E2,-2.662962341E-1,3.469036102E0,1.003543121E1,1.062144081E1
1.539118444E2,1.625619507E-1,-1.526824951E-2,1.611937958E1,1.612020650E1
1.541122064E2,-3.589535522E-1,1.863175507E0,3.358565826E0,3.857490769E0
1.543125674E2,-3.172203369E0,1.779798889E0,1.636546783E1,1.676481720E1
1.545129284E2,-1.552721100E0,5.659730530E-1,6.206543427E0,6.422806989E0
1.547132904E2,-1.880090332E-1,3.260819092E0,7.114255829E0,7.828213369E0
1.549136524E2,6.568341064E-1,3.421734467E0,1.155462204E1,1.206851226E1
1.551140134E2,5.617817688E-1,8.705895996E-1,6.488856354E0,6.571056368E0
1.553143744E2,-4.053570557E-1,3.501368866E0,8.802894287E0,9.482343914E0
1.555147364E2,1.913021851E-1,1.719923401E-1,1.604917557E1,1.605123716E1
1.557150974E2,1.019978943E0,2.373913422E0,4.945565643E0,5.579824505E0
1.559154579E2,2.589614868E-1,2.822530518E0,1.110974716E1,1.146561039E1
1.561158189E2,2.923420715E-1,-1.214574280E0,1.303459442E1,1.309432344E1
1.563161799E2,-9.083111572E-1,2.091600494E0,6.573430481E0,6.957715866E0
1.565165409E2,-3.748205566E-1,2.824775848E0,1.198692307E1,1.232096480E1
1.567169019E2,-1.803599396E0,2.121089172E-1,8.258177032E0,8.455498145E0
1.569172615E2,-3.927832031E-1,3.991599426E0,5.427563324E0,6.748747162E0
1.571176225E2,5.569917297E-1,3.090623016E0,1.128548172E1,1.171427710E1
1.573179835E2,1.477128296E0,2.671045532E0,8.430768127E0,8.966283704E0
1.575183445E2,3.159928894E-1,2.879412231E0,6.851701813E0,7.438863088E0
1.577187045E2,-9.391470337E-1,1.911375275E0,1.555415497E1,1.569927035E1
1.579190665E2,6.339317322E-1,1.852697296E0,5.400469666E0,5.744512975E0
1.581194275E2,-6.039939880E-1,2.277364197E0,1.188229065E1,1.211362982E1
1.583197875E2,1.011446686E0,7.405101013E-1,1.140208923E1,1.147078979E1
1.585201485E2,-8.997789001E-1,2.204316101E0,4.852758636E0,5.405356411E0
1.587205085E2,-6.971003723E-1,2.930456085E0,1.182735489E1,1.220491071E1
1.589208688E2,-1.344653778E0,-1.980381775E-1,7.408244476E0,7.531892134E0
1.591212288E2,-1.189725952E0,3.554358673E0,6.654711456E0,7.637676216E0
1.593215887E2,1.377136230E-1,3.855382690E0,1.122455841E1,1.186902069E1
1.595219498E2,1.166524200E0,2.562072144E0,7.130571899E0,7.666162534E0
1.597223098E2,4.825964355E-1,2.642155609E0,1.133862122E1,1.165239103E1
1.599226701E2,-2.069596252E0,-2.185455322E-1,1.300645294E1,1.317189466E1
1.601230301E2,5.613327026E-2,1.545835419E0,4.572241974E0,4.826816213E0
1.603233911E2,-3.439846802E-1,1.400188293E0,1.450453766E1,1.457602365E1
1.605237511E2,4.087998962E-1,1.039438477E0,6.123166809E0,6.224204485E0
1.607241111E2,-5.544470215E-1,2.323917389E0,7.755522308E0,8.115178976E0
1.609244713E2,2.118095398E-1,3.584595795E0,1.297666489E1,1.346432404E1
1.611248313E2,-4.022135925E-1,1.377585297E0,4.919070740E0,5.124136412E0
1.613251913E2,-2.969824219E-1,3.516637115E0,1.203766754E1,1.254433637E1
1.615255513E2,-5.637277222E-1,-9.702822876E-1,1.251622238E1,1.256642588E1
1.617259113E2,-6.917115784E-1,1.738185425E0,5.999074860E0,6.283999733E0
1.619262700E2,-4.793032837E-1,2.347119141E0,1.292607010E1,1.314617770E1
1.621266300E2,-2.650238800E0,-8.822653198E-1,9.309440918E0,9.719457186E0
1.623269900E2,-1.856738892E0,3.496129761E0,5.076842651E0,6.437758455E0
1.625273500E2,-6.812333679E-1,3.241509247E0,1.111947693E1,1.160233719E1
1.627277090E2,1.328038330E0,2.692451019E0,5.288951569E0,6.081610559E0
1.629280686E2,9.713301086E-1,2.739004211E0,8.950337677E0,9.410322565E0
1.631284286E2,4.281097412E-2,1.961071930E0,1.460243408E1,1.473359145E1
1.633287876E2,-8.996292114E-2,9.141490173E-1,4.012705536E0,4.116499420E0
1.635291476E2,7.095245361E-2,3.386108551E0,1.229168930E1,1.274976044E1
1.637295066E2,8.180488586E-1,-5.625302124E-1,1.052805679E1,1.057476354E1
1.639298676E2,-2.499801636E-2,2.380948792E0,4.557572479E0,5.142082161E0
1.641302266E2,-7.949967957E-1,1.791773987E0,1.317515213E1,1.332017671E1
1.643305856E2,-8.957373047E-1,1.775008850E0,8.674012299E0,8.898960113E0
1.645309456E2,1.481918335E-1,3.097059631E0,6.220015411E0,6.949987834E0
1.647313046E2,1.546883240E0,-4.429289246E-1,1.789423874E1,1.796643576E1
1.649316623E2,1.922003174E-1,1.100062408E0,5.680686951E0,5.789411239E0
1.651320213E2,-6.230044556E-1,2.348915405E0,1.292487259E1,1.315134478E1
1.653323813E2,-2.872077484E0,-8.074209595E-1,1.085138443E1,1.125403491E1
1.655327403E2,-6.195616150E-1,1.925895081E0,6.861281891E0,7.153329130E0
1.657330993E2,-2.640509033E-1,2.418071594E0,1.334909042E1,1.356889856E1
1.659334593E2,5.164260864E-1,2.144440613E0,7.019053802E0,7.357474956E0
1.661338183E2,-5.658233643E-2,3.435655518E0,6.575526123E0,7.419196331E0
1.663341773E2,4.342469788E-1,4.093088379E0,1.223929825E1,1.291287592E1
1.665345363E2,-2.424957275E-2,1.712289276E0,5.871540070E0,6.116167541E0
1.667348953E2,-2.259700928E0,3.363355865E0,1.397688492E1,1.455237860E1
1.669352542E2,8.032296753E-1,-1.371148682E-1,1.228076202E1,1.230776561E1
1.671356122E2,-1.281335449E-1,2.749632111E0,4.907694397E0,5.626931601E0
1.673359712E2,-2.145039368E-1,3.553909607E0,1.257205627E1,1.306647942E1
1.675363302E2,-1.682800598E0,1.446741486E0,6.779551849E0,7.133526621E0
1.677366892E2,-1.125659180E0,3.355422363E0,6.398594055E0,7.312179819E0
1.679370468E2,1.366658020E-1,3.999682617E0,1.256681717E1,1.318867061E1
1.681374058E2,5.520520020E-1,2.824027405E0,4.444557495E0,5.294712789E0
1.683377638E2,1.024170227E0,3.724255371E0,1.026071274E1,1.096363209E1
1.685381228E2,-1.335223389E0,2.483335876E-1,1.419827454E1,1.426308139E1
1.687384808E2,-2.005828857E-2,2.087708588E0,6.424490204E0,6.755220489E0
1.689388402E2,-3.236270142E-1,2.627486115E0,1.566552338E1,1.588763797E1
1.691391982E2,5.882766724E-2,1.679806824E0,5.366939392E0,5.623988807E0
1.693395572E2,-6.683601379E-1,2.850372620E0,6.747219086E0,7.355018337E0
1.695399152E2,-2.797682190E-1,3.434158630E0,1.404184982E1,1.445839764E1
1.697402732E2,1.930984497E-1,2.391726379E0,7.259603577E0,7.645880340E0
1.699406325E2,1.682501221E-1,4.382286987E0,8.175848236E0,9.277782155E0
1.701409905E2,1.275796967E0,1.196911011E0,1.452175186E1,1.462674027E1
1.703413485E2,2.965333557E-1,2.647394714E0,6.234984283E0,6.780240395E0
1.705417065E2,-8.367599487E-2,3.191363525E0,1.099388809E1,1.144802945E1
1.707420645E2,-2.070793762E0,5.212161255E-1,8.552614746E0,8.815161487E0
1.709424223E2,3.263214111E-2,2.456541595E0,5.832621002E0,6.328912167E0
1.711427803E2,-3.219804382E-1,2.837649078E0,1.378528336E1,1.407799563E1
1.713431383E2,2.615061951E-1,1.687590637E0,5.963598633E0,6.203293988E0
1.715434963E2,4.677772522E-1,2.713108063E0,1.028660889E1,1.064866627E1
1.717438543E2,-2.245330811E-3,3.807332611E0,1.320149734E1,1.373955308E1
1.719442118E2,1.465452576E-1,1.222507782E0,6.112838287E0,6.235606844E0
1.721445698E2,9.406439209E-1,4.385280762E0,1.143651764E1,1.228452010E1
1.723449278E2,5.533992004E-1,3.941304016E-1,1.048704208E1,1.050902665E1
1.725452848E2,-9.136999512E-1,2.388582916E0,4.924160156E0,5.548651115E0
1.727456428E2,-6.996450806E-1,3.206033020E0,1.241233841E1,1.283878093E1
1.729460016E2,-1.611698456E0,1.296454010E0,7.021748199E0,7.320062342E0
1.731463586E2,5.987548828E-3,2.929108887E0,7.360044708E0,7.921488044E0
1.733467166E2,2.096839600E0,3.788621521E0,1.183962936E1,1.260663368E1
1.735470746E2,3.844006348E-1,1.986219635E0,5.772446136E0,6.116695733E0
1.737474316E2,-2.844085693E-3,1.712738342E0,1.294178741E1,1.305462915E1
1.739477892E2,-2.043550415E0,1.992356873E-1,1.093461136E1,1.112571430E1
1.741481462E2,-5.357359314E-1,3.105292511E0,4.593497772E0,5.570464644E0
1.743485032E2,5.981561279E-1,2.584226074E0,1.151809799E1,1.181958529E1
1.745488612E2,3.517684937E-2,3.025658112E0,7.836803284E0,8.400674385E0
1.747492182E2,1.948947144E-1,3.075504456E0,7.027286682E0,7.673295884E0
1.749495750E2,-8.906478882E-2,2.424807587E0,1.682067123E1,1.699478170E1
1.751499330E2,-5.538482666E-3,1.429227905E0,5.541326752E0,5.722676406E0
1.753502900E2,-9.728269958E-1,3.538641357E0,1.149250122E1,1.206424301E1
1.755506470E2,-1.871109009E-2,-1.160237274E0,8.049061890E0,8.132275078E0
1.757510040E2,-6.146218872E-1,2.881208496E0,5.566324768E0,6.297864232E0
1.759513605E2,-1.810185699E0,2.137105865E0,1.320973022E1,1.350336870E1
1.761517175E2,-6.170169067E-1,1.543739777E0,8.127049713E0,8.295346852E0
1.763520745E2,-7.578739929E-1,4.093687134E0,8.916358337E0,9.840431563E0
1.765524315E2,8.328680420E-1,4.358935547E-1,1.546643738E1,1.549497846E1
1.767527885E2,-4.878355408E-1,2.216141510E0,5.493576050E0,5.943790417E0
1.769531463E2,-7.807763672E-1,3.735032959E0,1.194815369E1,1.254266556E1
1.771535033E2,-1.652413788E0,1.074765015E-1,8.619974670E0,8.777584283E0
1.773538603E2,-9.373507690E-1,3.357068939E0,4.292922821E0,5.529712893E0
1.775542173E2,-1.567240906E-1,1.968256989E0,1.598331253E1,1.610480914E1
1.777545743E2,1.299298096E0,2.069147186E0,4.682113495E0,5.281262387E0
1.779549295E2,-4.224215698E-1,2.418670349E0,9.878557434E0,1.017911112E1
1.781552865E2,1.231339417E0,2.438878326E0,1.570219711E1,1.593810900E1
1.783556435E2,6.541397095E-2,1.899849243E0,4.586013336E0,4.964395679E0
1.785559995E2,-1.122665405E-2,2.609972534E0,1.506392441E1,1.528835836E1
1.787563565E2,6.631210327E-1,9.794132996E-1,7.846383362E0,7.935030673E0
1.789567131E2,-9.377998352E-1,2.733615417E0,5.082530823E0,5.846729115E0
1.791570701E2,-8.925938416E-1,2.998414764E0,1.345926132E1,1.381806536E1
1.793574261E2,-8.928932190E-1,1.644480286E0,8.221952362E0,8.432204596E0
1.795577831E2,-1.347198486E-1,3.964505768E0,7.952512665E0,8.886951846E0
1.797581391E2,1.271156616E0,2.603535919E0,1.402538406E1,1.432150958E1
1.799584958E2,4.490661621E-2,1.956431580E0,5.544470215E0,5.879693112E0
1.801588518E2,-1.168470154E0,2.769091644E0,1.226399689E1,1.262690820E1
1.803592078E2,-2.334545288E0,-1.131646729E-1,1.057640625E1,1.083158701E1
1.805595648E2,-2.712359619E-1,2.400108948E0,5.484295349E0,5.992627753E0
1.807599208E2,-1.105002136E0,2.904709625E0,1.322245377E1,1.358277038E1
1.809602771E2,2.469863892E-1,1.973645782E0,8.170010376E0,8.408647305E0
1.811606331E2,-2.854563904E-1,2.902164917E0,7.312443695E0,7.872476062E0
1.813609891E2,-1.100810852E0,3.381917267E0,1.416758835E1,1.460718003E1
1.815613451E2,-2.125579834E-1,1.595232697E0,4.809348907E0,5.071467753E0
1.817617011E2,-4.128414917E-1,4.253854065E0,1.236294113E1,1.308082665E1
1.819620572E2,4.580474854E-2,9.292675781E-1,1.127964386E1,1.131795043E1
1.821624132E2,-5.267546082E-1,2.382595367E0,4.843328247E0,5.423288634E0
1.823627692E2,-6.204597473E-1,2.554737396E0,1.432146835E1,1.456077296E1
1.825631252E2,-1.889520721E0,1.188827820E0,8.128845978E0,8.429812398E0
1.827634812E2,-6.456074524E-1,3.176843719E0,5.987099762E0,6.808414541E0
1.829638372E2,-4.068539429E-1,3.858675842E0,1.216265762E1,1.276656374E1
1.831641932E2,3.382965088E-1,1.577270050E0,6.517147522E0,6.713824332E0
1.833645492E2,-6.950047302E-1,2.472558289E0,1.080049026E1,1.110167402E1
1.835649042E2,-3.706292725E-1,1.197659454E0,1.617700974E1,1.622551689E1
1.837652602E2,-6.367758179E-1,1.145867157E0,7.624394989E0,7.736271320E0
1.839656163E2,-2.948867798E-1,3.032992859E0,1.508997025E1,1.539458365E1
1.841659713E2,7.890092468E-1,9.231303406E-1,7.166347504E0,7.268510285E0
1.843663273E2,-2.695893860E-1,3.225791931E0,4.511318665E0,5.552513675E0
1.845666823E2,-1.607956238E0,4.108057251E0,1.285915924E1,1.359483851E1
1.847670383E2,-1.035097504E0,1.308279419E0,7.765252075E0,7.942427946E0
1.849673931E2,-1.522334290E-1,3.966451721E0,9.224268036E0,1.004206329E1
1.851677491E2,4.305047607E-1,7.813751221E-1,1.485136642E1,1.487813719E1
1.853681041E2,-1.384620667E-1,1.887874146E0,5.199437714E0,5.533298571E0
1.855684591E2,-2.100282440E0,1.827399902E0,1.399170410E1,1.426598613E1
1.857688151E2,-1.906734924E0,4.478686523E-1,8.785680084E0,9.001355395E0
1.859691700E2,-7.249424744E-1,3.032394104E0,5.364843750E0,6.205038602E0
1.861695250E2,-1.890568542E-1,4.067341919E0,1.181118851E1,1.249332569E1
1.863698810E2,6.577322388E-1,1.724863129E0,6.205495605E0,6.474252097E0
1.865702360E2,-2.755769348E-1,2.784509583E0,1.218346436E1,1.250064958E1
1.867705910E2,-1.669178925E0,1.054557037E0,1.574081680E1,1.586415968E1
1.869709461E2,-3.622467041E-1,2.019600220E0,4.980742493E0,5.386817567E0
1.871713011E2,5.339396667E-1,3.197500763E0,1.319371353E1,1.358613924E1
1.873716561E2,8.687933350E-1,9.123527527E-1,7.319928131E0,7.427552575E0
1.875720111E2,-4.574487305E-1,3.137625275E0,4.750371552E0,5.711390512E0
1.877723661E2,-1.719324646E0,2.784210205E0,1.391491379E1,1.429449997E1
1.879727211E2,-4.963677979E-1,1.410666504E0,8.703351288E0,8.830893761E0
1.881730761E2,-5.766009521E-1,3.593128052E0,8.023614807E0,8.810302630E0
1.883734311E2,6.709048462E-1,1.910776520E0,1.419677765E1,1.434049078E1
1.885737861E2,2.685415649E-1,2.356549530E0,3.838467865E0,4.512125420E0
1.887741401E2,-1.343905334E0,1.842219086E0,1.411684387E1,1.429982985E1
1.889744950E2,-2.912493439E0,-5.221142578E-1,9.120982819E0,9.588928455E0
1.891748500E2,-8.216413879E-1,2.877017212E0,5.752687225E0,6.484268110E0
1.893752040E2,-4.007167053E-1,3.050955505E0,1.181433197E1,1.220849472E1
1.895755590E2,1.219963074E0,2.520458679E0,8.561446381E0,9.007740337E0
1.897759140E2,-5.089416504E-2,2.833757172E0,7.750881958E0,8.252814129E0
1.899762681E2,3.959266663E-1,3.507955170E0,1.402688095E1,1.446429731E1
1.901766231E2,7.364685059E-2,1.666035461E0,5.885311432E0,6.117024495E0
1.903769771E2,-1.184037781E-1,3.648961945E0,1.033286270E1,1.095887742E1
1.905773321E2,1.184337158E0,-5.872288513E-1,1.174278076E1,1.181695359E1
1.907776861E2,-4.011657715E-1,1.501826935E0,5.700146484E0,5.908306700E0
1.909780410E2,-2.900967407E-1,7.315287781E-1,1.192076065E1,1.194670770E1
1.911783950E2,-9.651928711E-1,6.732998657E-1,8.092471619E0,8.177592976E0
1.913787490E2,2.483784943E0,1.939067688E0,6.618187408E0,7.330046092E0
1.915791040E2,1.074615326E0,4.170327759E0,1.129835495E1,1.209128845E1
1.917794580E2,-3.305126953E-1,2.311044159E0,7.599097595E0,7.949619362E0
1.919798121E2,1.765877838E0,3.391647034E0,1.017838394E1,1.087295240E1
1.921801661E2,-1.007704468E0,1.625619507E0,1.153965317E1,1.169708093E1
1.923805211E2,-5.164260864E-2,8.129594421E-1,9.157806244E0,9.193964608E0
1.925808751E2,8.729846191E-1,6.815327454E-1,1.419183792E1,1.423498692E1
1.927812291E2,8.743318176E-1,6.036946106E-1,6.271208954E0,6.360578987E0
1.929815835E2,4.445755005E-1,2.682421875E0,8.881630554E0,9.288508803E0
1.931819375E2,8.345146179E-1,3.190465393E0,1.246817230E1,1.289693005E1
1.933822915E2,-2.102976837E0,2.383792877E0,6.477030945E0,7.215047465E0
1.935826455E2,-7.304809570E-2,1.960024109E0,1.024185196E1,1.042797018E1
1.937829995E2,-1.057700500E0,4.685256958E-2,1.481214798E1,1.484993782E1
1.939833531E2,5.848338318E-1,8.843609619E-1,5.517975311E0,5.618912391E0
1.941837071E2,1.838476868E0,2.794389038E0,1.120030884E1,1.168911996E1
1.943840611E2,-8.951385498E-1,-7.514373779E-1,1.010832962E1,1.017566995E1
1.945844141E2,1.909129944E0,2.359393616E0,6.128854980E0,6.839179684E0
1.947847681E2,6.429130554E-1,2.143392792E0,1.245485001E1,1.265427827E1
1.949851223E2,8.370593262E-1,6.557862854E-1,8.492888947E0,8.559198948E0
1.951854763E2,1.160087585E-1,3.377725983E0,7.047344971E0,7.815853247E0
1.953858293E2,-4.529580688E-1,2.403102722E0,1.409903091E1,1.430953341E1
1.955861832E2,-4.785548401E-1,3.382965088E-2,8.074958038E0,8.089196901E0
1.957865373E2,1.723216553E0,2.506238251E0,1.048838928E1,1.092048603E1
1.959868905E2,1.658251648E0,-1.676663361E0,8.457861786E0,8.780456967E0
1.961872445E2,1.073268127E-1,2.020198975E0,6.829697571E0,7.123025470E0
1.963875975E2,1.246308289E0,8.159532166E-1,1.416968399E1,1.424777205E1
1.965879515E2,-1.273701324E0,2.354902954E0,5.948180695E0,6.522939258E0
1.967883045E2,2.154020691E-1,1.719624023E0,7.976911926E0,8.163003658E0
1.969886578E2,8.246351624E-1,2.738106079E0,1.359323273E1,1.389076038E1
1.971890108E2,-2.920426941E-1,1.364861755E0,5.695655823E0,5.864182108E0
1.973893648E2,-1.486408997E-1,2.799478455E0,1.083207458E1,1.118896839E1
1.975897178E2,-1.930385742E0,-1.480271759E0,1.335193451E1,1.357172608E1
1.977900708E2,4.896318054E-1,1.521585846E0,6.810687103E0,6.995743106E0
1.979904243E2,5.465135193E-1,2.052681427E0,1.320748489E1,1.337721329E1
1.981907783E2,-3.611988831E-1,-3.571572876E-1,6.378386078E0,6.398580696E0
1.983911313E2,1.679806824E0,1.362317047E0,6.560557251E0,6.907862922E0
1.985914843E2,2.537223816E-1,1.535656586E0,1.447489929E1,1.455834213E1
1.987918373E2,1.145567780E0,3.149450684E-1,8.169411621E0,8.255349912E0
1.989921896E2,2.637515259E-1,2.421664124E0,8.267457733E0,8.618867638E0
1.991925426E2,-3.897894287E-1,3.120111694E0,1.349009720E1,1.385170586E1
1.993928956E2,1.496887207E-2,4.538562012E-1,6.916067963E0,6.930959932E0
1.995932486E2,1.081501007E0,1.992207184E0,1.131826355E1,1.154303356E1
1.997936016E2,-1.065334625E0,-1.919757843E0,1.342019257E1,1.359860201E1
1.999939547E2,-3.305126953E-1,1.553020477E0,6.043981476E0,6.249065796E0
2.001943077E2,7.214996338E-1,1.672023010E0,1.339414673E1,1.351737361E1
2.003946607E2,1.201701050E0,3.812571716E-1,6.150260468E0,6.278148315E0
2.005950137E2,1.049018555E0,2.481539612E0,8.690178680E0,9.098224237E0
2.007953657E2,4.168830872E-1,3.651656342E0,1.119312378E1,1.178110375E1
2.009957193E2,-1.436113586E0,1.635948029E0,8.080795898E0,8.368871521E0
2.011960723E2,5.507048035E-1,2.587968292E0,9.371561737E0,9.737916874E0
2.013964243E2,-3.370690613E0,-1.305285645E-1,1.628283966E1,1.662857361E1
2.015967773E2,7.804769897E-1,2.056423645E0,5.143154755E0,5.593752173E0
2.017971303E2,1.051563263E0,2.468965759E0,1.208646606E1,1.238080123E1
2.019974820E2,1.901046753E-1,-2.503843231E0,1.150926636E1,1.178000776E1
2.021978350E2,7.303312683E-1,1.433119812E0,7.269932098E0,7.445745689E0
2.023981870E2,3.456312561E-1,1.899549866E0,1.222896973E1,1.238044633E1
2.025985400E2,1.335822144E0,8.931925964E-1,6.889573059E0,7.074491554E0
2.027988920E2,3.501219177E-1,2.971470795E0,8.236023102E0,8.762665152E0
2.029992444E2,-9.394464111E-1,3.977079620E0,1.223840012E1,1.290264156E1
2.031995964E2,-4.281097412E-1,3.478765869E-1,9.182953949E0,9.199507557E0
2.033999484E2,5.315446472E-1,2.910098419E0,1.042971130E1,1.084112957E1
2.036003014E2,1.103205872E-1,-1.109343109E0,1.200877762E1,1.206041262E1
2.038006534E2,2.217488708E0,2.733465729E0,4.530628510E0,5.737219340E0
2.040010063E2,-1.804048462E0,2.458337860E0,1.397314270E1,1.430198353E1
2.042013593E2,-1.328786774E0,2.550546112E0,7.081473999E0,7.643182175E0
2.044017113E2,3.550616455E-1,2.018103333E0,7.771389313E0,8.036995812E0
2.046020633E2,4.878355408E-1,4.573289795E0,1.123189316E1,1.213706665E1
2.048024153E2,-3.293151855E-3,1.671274567E0,6.580615540E0,6.789526523E0
2.050027684E2,1.206491089E0,3.384162598E0,9.300010529E0,9.969873272E0
2.052031204E2,-1.178050232E-1,-1.153650970E0,1.473056763E1,1.477614331E1
2.054034724E2,3.073109436E-1,1.928888855E0,5.902525635E0,6.217303362E0
2.056038244E2,1.025367737E-1,2.169738007E0,1.320958054E1,1.338698229E1
2.058041764E2,-4.864883423E-2,1.655108185E0,7.282206573E0,7.468084252E0
2.060045278E2,9.476792908E-1,1.670376434E0,7.827223206E0,8.059384380E0
2.062048798E2,1.102607117E0,1.252445526E0,1.273895920E1,1.284777972E1
2.064052318E2,-1.614841919E0,2.138153687E0,1.019275406E1,1.053905361E1
2.066055838E2,1.428030396E-1,1.645079041E0,1.090167984E1,1.102602835E1
2.068059358E2,-3.342399445E0,2.974614258E0,1.504326736E1,1.569458050E1
2.070062883E2,6.297404480E-1,1.303339691E0,6.084247742E0,6.254065715E0
2.072066403E2,4.475692749E-1,2.554438019E0,1.220037918E1,1.247295971E1
2.074069923E2,1.239422607E-1,4.177812195E-1,9.899813232E0,9.909399824E0
2.076073443E2,1.088237000E0,2.227368164E0,6.335724792E0,6.803443051E0
2.078076953E2,5.328918457E-1,2.283651123E0,1.338217163E1,1.358607941E1
2.080080464E2,6.462062073E-1,1.222657471E0,6.532565460E0,6.677341181E0
2.082083984E2,1.175206146E0,2.882555695E0,1.071052734E1,1.115372731E1
2.084087504E2,-9.728269958E-1,4.393813019E0,1.072714279E1,1.163286627E1
2.086091014E2,-1.064586182E0,1.964814148E0,6.281986542E0,6.667622761E0
2.088094534E2,7.417076111E-1,2.206262054E0,1.137439682E1,1.161010876E1
2.090098048E2,-9.551637268E-1,-2.936892700E-1,1.177107193E1,1.181341295E1
2.092101568E2,2.174977112E-1,2.637964325E0,6.218817902E0,6.758687530E0
2.094105088E2,7.445516968E-1,1.119671631E0,1.363783997E1,1.370396661E1
2.096108598E2,-1.572030945E0,1.724863129E0,8.138426056E0,8.466428572E0
2.098112118E2,1.859133911E-1,2.453248444E0,7.565717010E0,7.955693911E0
2.100115631E2,-1.062789917E0,5.004093933E0,1.503757919E1,1.588393108E1
2.102119151E2,-3.423381042E-1,1.212478638E-1,7.324119415E0,7.333118138E0
2.104122661E2,1.835483093E0,2.441872101E0,1.062625259E1,1.105662615E1
2.106126171E2,6.426136780E-1,-2.092798004E0,1.245485001E1,1.264579157E1
2.108129691E2,8.897497559E-1,2.412533112E0,5.674100647E0,6.229557672E0
2.110133206E2,8.202941895E-2,3.187621307E0,1.118863312E1,1.163413811E1
2.112136716E2,1.155447235E0,7.729925537E-1,7.686066742E0,7.810774466E0
2.114140236E2,9.617500305E-1,2.336640930E0,9.069190521E0,9.414620049E0
2.116143746E2,-6.477030945E-1,3.306623840E0,1.166853516E1,1.214528687E1
2.118147256E2,-1.198108521E0,5.751040649E-1,9.559870148E0,9.651804285E0
2.120150758E2,-1.121168518E0,2.950364685E0,1.114282837E1,1.158120437E1
2.122154268E2,7.244934082E-2,-7.351213074E-1,1.048644333E1,1.051242817E1
2.124157778E2,4.647834778E-1,1.840572510E0,6.421047363E0,6.695788235E0
2.126161288E2,4.544549561E-1,1.195563812E0,1.364831818E1,1.370811771E1
2.128164798E2,-8.156538391E-1,2.146386566E0,6.891818390E0,7.264256823E0
2.130168306E2,6.119274902E-1,2.354304199E0,7.916587372E0,8.281881376E0
2.132171816E2,5.486091614E-1,3.260220337E0,1.228180984E1,1.271899610E1
2.134175326E2,1.321751404E-1,6.765930176E-1,6.051914978E0,6.091052723E0
2.136178836E2,-6.960525513E-2,2.434836731E0,8.623866577E0,8.961269416E0
2.138182346E2,-1.265019379E0,-1.635648651E0,1.308623703E1,1.324859314E1
2.140185858E2,1.277892609E0,1.795815582E0,5.858966217E0,6.259828133E0
2.142189368E2,8.060737610E-1,1.470242615E0,1.451591400E1,1.461243058E1
2.144192878E2,8.943901062E-1,3.396437073E-1,7.501051483E0,7.561816241E0
2.146196378E2,9.151968384E-1,2.230062561E0,8.099656677E0,8.450751598E0
2.148199888E2,-1.049766998E0,3.014730835E0,1.436457870E1,1.471501730E1
2.150203401E2,-5.530998230E-1,8.533753967E-1,8.058043213E0,8.121959702E0
2.152206901E2,6.944059753E-1,2.902015228E0,1.047925827E1,1.089581323E1
2.154210411E2,1.682501221E-1,4.709207153E-1,9.066645813E0,9.080426241E0
2.156213921E2,-8.535250854E-1,1.508562927E0,6.457721100E0,6.686286636E0
2.158217421E2,5.547463989E-1,1.529369659E0,1.480586105E1,1.489497354E1
2.160220923E2,-9.404942322E-1,1.065484314E0,7.553891602E0,7.686420789E0
2.162224423E2,7.899073792E-1,2.371219025E0,7.397766266E0,7.808558065E0
2.164227933E2,-1.016386414E0,2.977308655E0,1.317859497E1,1.354890304E1
2.166231433E2,-1.015488281E0,3.682342529E-2,9.340725861E0,9.395835887E0
2.168234933E2,-1.839674377E-1,3.064876556E0,8.232879639E0,8.786786641E0
2.170238448E2,-2.213596802E0,-4.716691589E-1,1.334729416E1,1.353782641E1
2.172241948E2,-5.004093933E-1,1.214274902E0,6.027665405E0,6.169086102E0
2.174245448E2,1.446891174E0,8.881031799E-1,1.400487671E1,1.410740206E1
2.176248958E2,6.688092041E-1,1.156794434E0,7.624544678E0,7.740746776E0
2.178252458E2,3.772155762E-2,2.701132965E0,6.214626617E0,6.776365265E0
2.180255959E2,-3.519181824E-1,2.532433777E0,1.190160049E1,1.217313278E1
2.182259459E2,-3.315006409E0,2.327509918E0,8.391699371E0,9.318110766E0
2.184262959E2,7.614665222E-1,2.667752380E0,1.053628967E1,1.089541803E1
2.186266459E2,-6.005511475E-1,1.982327728E0,1.139475449E1,1.158148154E1
2.188269969E2,3.824546814E-1,1.424138489E0,5.440286865E0,5.636591452E0
2.190273469E2,-3.802093506E-2,2.171983337E-1,1.589065521E1,1.589218499E1
2.192276969E2,-9.761201477E-1,2.068698120E-1,9.960886230E0,1.001073724E1
2.194280459E2,1.219813385E0,1.853445740E0,7.346722412E0,7.674473012E0
2.196283959E2,-2.790197754E-1,3.458857269E0,1.122096588E1,1.174528080E1
2.198287459E2,-7.620652771E-1,1.405277710E0,7.860005035E0,8.020924391E0
2.200290961E2,3.465293884E-1,1.927691345E0,9.604477386E0,9.802145806E0
2.202294461E2,-1.246457977E0,-8.972341919E-1,1.248942810E1,1.258350114E1
2.204297961E2,-2.960842896E-1,9.342073059E-1,6.781348114E0,6.851794761E0
2.206301451E2,1.005309448E0,-4.490661621E-1,1.542976364E1,1.546899847E1
2.208304951E2,2.854563904E-1,7.973918152E-1,7.597900085E0,7.644959435E0
2.210308452E2,1.896855469E0,2.405797119E0,7.082671509E0,7.716874766E0
2.212311952E2,7.243437195E-1,1.015637970E0,1.288430695E1,1.294455715E1
2.214315442E2,-1.323697357E0,1.340013428E0,9.166039124E0,9.357568268E0
2.216318942E2,8.105644226E-1,2.899620209E0,1.115180969E1,1.155108962E1
2.218322432E2,8.913963318E-1,-1.226998444E0,1.236473740E1,1.245740115E1
2.220325930E2,1.456770630E0,2.200274506E0,4.849166107E0,5.520670295E0
2.222329420E2,-9.315129089E-1,6.432124329E-1,1.253837631E1,1.258937326E1
2.224332920E2,-1.765877838E0,3.418441315E0,6.769373016E0,7.786429002E0
2.226336410E2,8.619076538E-1,1.799857178E0,6.460714874E0,6.761893770E0
2.228339910E2,1.228944397E-1,3.940106506E0,1.278685959E1,1.338070702E1
2.230343400E2,-3.728746033E-1,1.207239532E0,6.142626343E0,6.271229636E0
2.232346890E2,2.769241333E-2,9.261241150E-1,1.030427216E1,1.034584445E1
2.234350390E2,6.188131714E-1,-4.002526703E0,1.542557236E1,1.594839905E1
2.236353880E2,1.893262939E0,1.335822144E0,4.701273651E0,5.241263140E0
2.238357372E2,1.822310486E0,-2.706372070E-1,1.599394043E1,1.609969535E1
2.240360872E2,4.857398987E-1,1.534309387E-1,8.536598053E0,8.551782891E0
2.242364362E2,7.191046143E-1,2.309397583E0,6.632108459E0,7.059411538E0
2.244367852E2,-5.463638306E-2,2.140399017E0,1.307321411E1,1.324738541E1
2.246371342E2,-1.067579956E0,1.008901978E0,6.973099365E0,7.126129729E0
2.248374830E2,1.315015411E0,2.769391022E0,1.015143997E1,1.060426922E1
2.250378320E2,1.106199646E-1,7.319778442E-1,9.239087219E0,9.268697912E0
2.252381810E2,7.846682739E-1,2.069895630E0,5.522915039E0,5.950022080E0
2.254385300E2,-6.888674927E-1,1.956281891E0,1.417746780E1,1.432836943E1
2.256388790E2,-3.587589569E0,2.354304199E0,9.199270020E0,1.015086775E1
2.258392280E2,2.811154175E-1,2.786305847E0,7.064858551E0,7.599654762E0
2.260395770E2,-1.528920593E0,3.491639099E0,1.314222061E1,1.368382638E1
2.262399260E2,-2.484832764E-2,6.956034851E-1,6.572682037E0,6.609434984E0
2.264402750E2,1.091979218E0,2.894530792E0,1.071367081E1,1.115138867E1
2.266406240E2,-7.982899475E-1,1.471440125E-1,1.137888748E1,1.140780428E1
2.268409727E2,1.443298645E0,1.419647827E0,5.365741882E0,5.734953956E0
2.270413207E2,2.159858551E0,2.290985870E0,1.179786621E1,1.221078426E1
2.272416697E2,-7.421566772E-1,1.605411530E0,8.481662292E0,8.664106299E0
2.274420187E2,4.326004028E-1,2.152374115E0,7.867938538E0,8.168495227E0
2.276423677E2,-1.424886932E0,3.254382477E0,1.208511887E1,1.259648388E1
2.278427161E2,-1.295705566E0,4.740641785E-1,9.047485657E0,9.152080991E0
2.280430651E2,2.685415649E-1,3.334016876E0,9.388027496E0,9.966084656E0
2.282434131E2,8.376580811E-1,-3.794609070E-1,1.170011948E1,1.173620285E1
2.284437621E2,4.459226990E-1,1.819616089E0,5.517975311E0,5.827340843E0
2.286441101E2,-1.442999268E0,1.928589478E0,1.399409912E1,1.419987727E1
2.288444589E2,-1.994003448E0,2.652184753E0,7.008874969E0,7.754641324E0
2.290448069E2,5.619314575E-1,2.679428101E0,7.522456970E0,8.005152140E0
2.292451559E2,3.891906738E-1,3.888014832E0,1.343141922E1,1.398825046E1
2.294455039E2,-8.246351624E-1,6.981481934E-1,6.793023834E0,6.878416014E0
2.296458519E2,1.255888367E-1,2.948718109E0,9.413175201E0,9.865017913E0
2.298462006E2,-2.457589417E0,-2.636018372E-1,1.252460495E1,1.276616469E1
2.300465486E2,3.876937866E-2,6.912625122E-1,5.509742432E0,5.553071996E0
2.302468966E2,1.648072815E0,1.894161072E0,1.359981903E1,1.382964453E1
2.304472446E2,1.376687164E0,9.897418213E-1,7.042704620E0,7.243931584E0
2.306475926E2,4.376898193E-1,2.205962677E0,7.241191864E0,7.582394300E0
2.308479419E2,-2.951861572E-1,3.092419281E0,1.152228928E1,1.193370613E1
2.310482899E2,-2.593357086E0,2.060315552E0,8.535550232E0,9.155655024E0
2.312486379E2,1.251098328E0,3.435206451E0,8.374784546E0,9.137992481E0
2.314489859E2,-1.064286804E-1,1.422791290E0,1.129506180E1,1.138481810E1
2.316493339E2,9.532177734E-1,1.743424530E0,6.655609589E0,6.945883112E0
2.318496825E2,2.776725769E-1,1.942211151E0,1.264181122E1,1.279314962E1
2.320500305E2,-1.488055573E0,8.306227112E-1,6.848258972E0,7.057116580E0
2.322503785E2,1.059945831E0,3.143014069E0,8.222551117E0,8.866361682E0
2.324507265E2,-7.607180786E-1,3.739673309E0,1.105900269E1,1.169894819E1
2.326510735E2,-1.064286804E0,1.202748871E0,7.867489471E0,8.029738590E0
2.328514215E2,2.022294617E-1,3.827390900E0,8.026907959E0,8.895002487E0
2.330517695E2,-1.481020203E0,1.373693390E0,1.228195953E1,1.244696687E1
2.332521175E2,4.851411438E-1,2.276466064E0,4.688101044E0,5.234114163E0
2.334524645E2,9.310638428E-2,2.243684235E0,1.075199112E1,1.098399293E1
2.336528125E2,6.095324707E-1,9.713301086E-1,9.261690216E0,9.332412211E0
2.338531598E2,4.013154602E-1,2.740650787E0,6.360124054E0,6.937103057E0
2.340535068E2,1.824705505E-1,2.990630951E0,1.254601044E1,1.289881959E1
2.342538548E2,-3.203937378E0,1.316212921E0,1.112172226E1,1.164861954E1
2.344542028E2,6.435118103E-1,2.756966858E0,8.625513153E0,9.078240516E0
2.346545498E2,-3.068618774E-1,-1.501078491E0,1.458551926E1,1.466576874E1
2.348548985E2,8.033793640E-1,1.597927094E0,4.798870697E0,5.121323009E0
2.350552455E2,-2.662962341E-1,4.117936707E-1,1.392434418E1,1.393297701E1
2.352555935E2,-1.878443756E0,9.949809265E-1,8.595874786E0,8.854806680E0
2.354559405E2,7.134164429E-1,1.957778778E0,6.768025818E0,7.081527677E0
2.356562875E2,-1.051712952E0,4.119134216E0,1.302351746E1,1.369983116E1
2.358566343E2,-7.117698669E-1,-8.083190918E-3,9.208700409E0,9.236170467E0
2.360569813E2,4.010160828E-1,2.582429810E0,9.769434357E0,1.011294246E1
2.362573283E2,-1.463506622E0,-2.517315216E0,1.484882172E1,1.513163025E1
2.364576763E2,2.853067017E-1,1.351988525E0,4.532125397E0,4.738083315E0
2.366580233E2,1.684297485E0,1.130598907E0,1.410935944E1,1.425444266E1
2.368583714E2,5.628295898E-1,8.333171082E-1,7.129673767E0,7.200239064E0
2.370587184E2,2.706372070E-1,2.122136993E0,7.441625061E0,7.743028701E0
2.372590654E2,-7.517367554E-1,2.083966370E0,1.025337799E1,1.048998495E1
2.374594124E2,-2.078876953E0,1.039288788E0,1.032088760E1,1.057934646E1
2.376597594E2,-2.610271912E0,1.685494995E0,1.451022583E1,1.483917338E1
2.378601061E2,6.146218872E-1,-4.610412598E-1,1.186597458E1,1.189082301E1
2.380604531E2,8.695417786E-1,1.339564362E0,5.943839722E0,6.154654029E0
2.382608001E2,-1.784289551E-1,1.632205811E0,1.240410553E1,1.251230461E1
2.384611471E2,-1.267713776E0,3.257226562E-1,9.188193054E0,9.280952810E0
2.386614941E2,2.025288391E-1,1.938917999E0,7.356452179E0,7.610375129E0
2.388618414E2,-4.960684204E-1,3.697012024E0,1.172541687E1,1.230444564E1
2.390621884E2,-8.602610779E-1,7.881111145E-1,7.967930603E0,8.052893042E0
2.392625354E2,6.902146912E-1,2.843936005E0,9.555678864E0,9.993766400E0
2.394628824E2,-1.139879608E0,-2.558180237E-1,1.379815659E1,1.384752301E1
2.396632284E2,2.790197754E-1,2.092498627E0,5.447920990E0,5.842623182E0
2.398635748E2,7.632627869E-1,1.156045990E0,1.405532181E1,1.412342322E1
2.400639218E2,-9.116043091E-2,1.702709198E0,7.375163269E0,7.569713474E0
2.402642688E2,-8.158035278E-2,1.883383484E0,7.861950989E0,8.084804392E0
2.404646148E2,4.085005188E-1,2.458786926E0,1.194635742E1,1.220360445E1
2.406649618E2,-1.450932770E0,1.645528107E0,9.073232117E0,9.334693873E0
2.408653076E2,7.294331360E-1,1.920356598E0,9.205856323E0,9.432265518E0
2.410656546E2,-1.266067200E0,1.067729645E0,1.370834335E1,1.380802847E1
2.412660016E2,1.016386414E-1,1.859283600E0,4.443359985E0,4.817749877E0
2.414663476E2,-7.173083496E-1,1.027164001E0,1.257325378E1,1.263551771E1
2.416666936E2,-1.103654938E0,1.656605072E0,8.626111908E0,8.852807534E0
2.418670408E2,4.809498596E-1,2.288441162E0,6.917564850E0,7.302121553E0
2.420673868E2,-2.240690460E0,4.334236908E0,1.150642227E1,1.249816214E1
2.422677338E2,-6.369255066E-1,7.658074951E-1,8.409662018E0,8.468444395E0
2.424680798E2,5.037025452E-1,2.658022614E0,7.981552277E0,8.427572439E0
2.426684258E2,-6.902146912E-1,1.006956024E0,1.338756042E1,1.344310719E1
2.428687727E2,-3.683839417E-1,1.944456482E0,6.288572845E0,6.592629686E0
2.430691187E2,6.920109558E-1,2.011666718E0,1.340432556E1,1.357208996E1
2.432694647E2,1.631457367E0,1.078956299E0,9.224268036E0,9.429364805E0
2.434698107E2,5.346881104E-1,1.542991333E0,7.857759705E0,8.025652696E0
2.436701577E2,-6.725514221E-1,2.972518616E0,1.077968353E1,1.120222163E1
2.438705038E2,-1.251996460E0,1.357077942E0,9.109905853E0,9.295135305E0
2.440708498E2,2.667453003E-1,2.523302765E0,9.912387085E0,1.023199040E1
2.442711958E2,-2.134561157E-1,-1.229692841E0,1.407163788E1,1.412687866E1
2.444715418E2,1.907034302E-1,1.492845612E0,5.649701385E0,5.846715451E0
2.446718878E2,-5.463638306E-1,4.885839844E-1,1.457249634E1,1.459091763E1
2.448722338E2,-1.890568542E0,3.640729065E0,7.364834747E0,8.430299425E0
2.450725798E2,2.677931213E-1,1.895957336E0,7.904013519E0,8.132637770E0
2.452729258E2,-1.702409821E0,4.662504272E0,1.170565796E1,1.271454181E1
2.454732718E2,-2.546205139E-1,4.917274475E-1,7.018305359E0,7.040116306E0
2.456736178E2,4.299060059E-1,1.726360016E0,1.094688583E1,1.109051160E1
2.458739627E2,-1.121467896E0,-2.893183594E0,1.456411377E1,1.489099095E1
2.460743087E2,8.240364075E-1,1.844165039E0,4.687502289E0,5.104180483E0
2.462746547E2,1.263372803E-1,1.455273743E0,1.428150146E1,1.435601152E1
2.464750007E2,-2.245330811E-2,8.836125183E-1,8.550070038E0,8.595636852E0
2.466753467E2,1.053808594E-1,2.850671997E0,6.738387451E0,7.317328843E0
2.468756918E2,-1.750759277E0,4.084406433E0,1.145013931E1,1.228223205E1
2.470760378E2,-1.120569763E0,1.527423706E0,8.024512939E0,8.245089914E0
2.472763838E2,8.665480042E-1,1.177002411E0,1.039917480E1,1.050138452E1
2.474767288E2,7.646099854E-1,6.971003723E-1,1.195384186E1,1.199853793E1
2.476770748E2,4.263134766E-1,1.523681488E0,6.731352081E0,6.914799296E0
2.478774198E2,-1.272354126E-1,8.593629456E-1,1.407762543E1,1.410440467E1
2.480777658E2,-2.155367889E0,3.116369476E0,8.137378235E0,8.976318510E0
2.482781108E2,-1.347198486E-3,2.271975403E0,7.311395874E0,7.656264342E0
2.484784568E2,-3.294648743E-1,4.938679962E0,1.247924927E1,1.342500537E1
2.486788018E2,3.028202820E-1,1.441352692E0,5.764662323E0,5.949834401E0
2.488791479E2,-1.360670471E-1,1.436412964E0,1.205742645E1,1.214344799E1
2.490794929E2,1.502874756E-1,-3.059188385E0,1.406160873E1,1.439131891E1
2.492798379E2,1.573078766E0,1.903292084E0,5.841752014E0,6.342173457E0
2.494801839E2,-5.658233643E-2,2.229164429E0,1.360116623E1,1.378274640E1
2.496805289E2,-4.095483398E-1,1.450483704E0,6.827901306E0,6.992272096E0
2.498808734E2,6.436614990E-1,3.083288269E0,8.774603119E0,9.322801434E0
2.500812184E2,-9.295669556E-2,3.782933350E0,1.036684204E1,1.103587965E1
2.502815644E2,-1.009650421E0,8.235873413E-1,8.135581970E0,8.239258709E0
2.504819094E2,1.210083618E0,1.703607330E0,1.091155930E1,1.110984728E1
2.506822544E2,1.973196716E0,-5.709127808E-1,1.018317398E1,1.038828566E1
2.508826003E2,7.168592834E-1,2.610421600E0,6.096222839E0,6.670241455E0
2.510829453E2,-6.511459351E-2,7.415579224E-1,1.310015808E1,1.312129147E1
2.512832903E2,-1.719923401E0,3.100652161E0,7.083719330E0,7.921569281E0
2.514836353E2,1.445993042E-1,2.189047852E0,7.627239075E0,7.936473736E0
2.516839803E2,1.275347900E-1,4.068988495E0,1.220247482E1,1.286364351E1
2.518843248E2,-5.492079163E-1,1.166673889E0,6.591542816E0,6.716486730E0
2.520846698E2,4.757107544E-1,1.916015625E0,1.080962128E1,1.098841794E1
2.522850148E2,-1.404828644E0,5.454656982E-1,1.238434662E1,1.247570108E1
2.524853598E2,6.400689697E-1,1.070723419E0,6.597081299E0,6.713986788E0
2.526857048E2,1.266216888E0,1.006956024E0,1.248673370E1,1.259109941E1
2.528860498E2,9.017248535E-1,1.410516815E0,1.053000275E1,1.066225226E1
2.530863948E2,3.204835510E-1,1.852248230E0,7.383994904E0,7.619508773E0
2.532867398E2,-1.372645569E0,4.996459808E0,1.048210236E1,1.169287117E1
2.534870838E2,-5.279521179E-1,1.106049957E0,7.790699158E0,7.886512113E0
2.536874288E2,-1.564097443E0,4.011807404E0,1.004845413E1,1.093217407E1
2.538877735E2,1.282682648E0,-2.056872711E0,1.280018188E1,1.302768807E1
2.540881185E2,1.015488281E0,2.351909180E0,5.910908203E0,6.442168038E0
2.542884625E2,-3.571572876E-1,1.180445251E0,1.347183517E1,1.352816896E1
2.544888075E2,-3.191363525E-1,1.049168243E0,8.659642181E0,8.728803167E0
2.546891525E2,1.556762695E-1,2.667003937E0,7.641309814E0,8.094860146E0
2.548894975E2,-7.111711121E-1,5.516777802E0,1.217523148E1,1.338569621E1
2.550898425E2,-3.891906738E-3,1.384171600E0,6.155499573E0,6.309209234E0
2.552901875E2,9.683363342E-1,2.330354004E0,1.045426025E1,1.075452382E1
2.554905315E2,-1.355581055E0,-2.073937225E0,1.457578949E1,1.478487250E1
2.556908765E2,5.920188904E-1,1.954186249E0,5.050048370E0,5.447230379E0
2.558912201E2,3.354524231E-1,2.671344910E0,1.221205490E1,1.250531474E1
2.560915651E2,7.400610352E-1,1.706601105E0,6.875352631E0,7.122545294E0
2.562919091E2,6.081852722E-1,2.688708801E0,9.166787567E0,9.572305816E0
2.564922541E2,-4.828958130E-1,4.673581238E0,9.650282135E0,1.073328912E1
2.566925981E2,-1.610950012E0,1.726360016E0,7.839198303E0,8.187094044E0
2.568929417E2,-3.115022278E-1,5.096152496E0,1.111289062E1,1.222964194E1
2.570932867E2,3.860472107E-1,-5.715115356E-1,1.139206009E1,1.141291772E1
2.572936307E2,9.779164124E-1,1.808239746E0,6.119574280E0,6.455636363E0
2.574939747E2,-2.430944824E-1,1.949994965E0,1.319042038E1,1.333599509E1
2.576943197E2,-2.722538452E0,3.253634033E0,8.109835510E0,9.152474094E0
2.578946642E2,7.304809570E-2,2.856210480E0,7.618257751E0,8.136407407E0
2.580950082E2,-5.566923523E-1,4.976251831E0,1.266082169E1,1.361504295E1
2.582953522E2,-1.010847931E0,7.021897888E-1,5.429359589E0,5.567120403E0
2.584956962E2,4.707710266E-1,2.107317810E0,1.270273453E1,1.288494774E1
2.586960412E2,-5.542973328E-1,-1.804946594E0,1.231803452E1,1.246190403E1
2.588963851E2,9.898915100E-1,1.609153748E0,6.134094086E0,6.418439938E0
2.590967291E2,1.308129730E0,2.880759430E0,1.303923477E1,1.341758629E1
2.592970731E2,-1.089733887E0,7.851173401E-1,7.783813477E0,7.898840511E0
2.594974171E2,1.252894592E-1,3.105741577E0,8.424630890E0,8.979740187E0
2.596977611E2,-1.260528717E0,1.167122955E0,1.378393616E1,1.389057251E1
2.598981053E2,-7.664062500E-1,8.379574585E-1,5.737868042E0,5.849160701E0
2.600984493E2,1.416654053E0,2.274071045E0,1.254421417E1,1.282714376E1
2.602987933E2,9.419911194E-1,1.235979767E0,8.278684387E0,8.423277773E0
2.604991373E2,5.921685791E-1,2.323917389E0,6.569837952E0,6.993856330E0
2.606994813E2,2.543211365E-1,3.823349304E0,1.198467773E1,1.258233601E1
2.608998251E2,-2.025587769E0,2.356549530E0,6.562353516E0,7.260910078E0
2.611001681E2,1.616638184E-1,2.755619659E0,1.124102417E1,1.157498161E1
2.613005121E2,3.517684937E-2,1.579665070E0,1.001088226E1,1.013480848E1
2.615008561E2,2.947370911E-1,1.293011169E0,5.630092163E0,5.784175447E0
2.617012001E2,-2.978805542E-2,1.296454010E0,1.374157425E1,1.380262813E1
2.619015435E2,-2.496658173E0,2.348316650E0,7.102430420E0,7.886216519E0
2.621018875E2,1.512005768E0,1.134490814E0,7.644303589E0,7.874554477E0
2.623022315E2,-1.219963074E-1,3.480412445E0,1.309177551E1,1.354705651E1
2.625025745E2,-9.556127930E-1,1.146166534E0,6.516548767E0,6.685230091E0
2.627029185E2,7.099736023E-1,2.288291473E0,1.050769913E1,1.077738750E1
2.629032615E2,-8.204438782E-1,-2.975362701E0,1.466694992E1,1.498817305E1
2.631036045E2,5.890251160E-1,1.652114410E0,4.461622009E0,4.794007047E0
2.633039485E2,9.386979675E-1,1.110540619E0,1.450438797E1,1.457709589E1
2.635042915E2,2.600093079E-1,7.581733704E-1,8.697962494E0,8.734814437E0
2.637046355E2,6.535409546E-1,2.717149658E0,8.448132019E0,8.898367977E0
2.639049794E2,3.975732422E-1,3.858077087E0,1.001612137E1,1.074083379E1
2.641053234E2,-1.462159424E0,6.024971008E-1,9.490564270E0,9.621420015E0
2.643056664E2,1.018482056E0,2.044897614E0,1.105960144E1,1.129308177E1
2.645060104E2,7.899073792E-1,-7.852670288E-1,1.174772049E1,1.180040400E1
2.647063534E2,2.701881409E-1,1.297651520E0,7.170838165E0,7.292312465E0
2.649066958E2,-2.381547546E-1,2.112107849E0,1.180984131E1,1.199958620E1
2.651070398E2,-1.024020538E0,1.980980530E0,8.822653198E0,9.100116009E0
2.653073828E2,3.667373657E-2,2.504891052E0,7.855214996E0,8.245012237E0
2.655077258E2,-1.022673340E0,1.352287903E0,1.396251480E1,1.406507600E1
2.657080698E2,3.680845642E-1,1.333277435E0,5.126389618E0,5.309706723E0
2.659084137E2,-1.435514832E-1,9.246272278E-1,1.298804123E1,1.302170333E1
2.661087567E2,2.100132751E-1,-4.525090027E-1,1.131242569E1,1.132342020E1
2.663090997E2,8.930429077E-1,2.778222656E0,6.567742310E0,7.186882899E0
2.665094427E2,-4.881349182E-1,4.141587524E0,1.089674011E1,1.166747479E1
2.667097857E2,-4.062551880E-1,6.490502930E-1,7.304210815E0,7.344236189E0
2.669101278E2,4.349954224E-1,2.792293396E0,9.473350067E0,9.885872997E0
2.671104708E2,-1.349593506E0,7.345225525E-1,1.242027191E1,1.251495427E1
2.673108148E2,1.289568329E0,4.927752686E-1,6.824308777E0,6.962542942E0
2.675111578E2,1.139879608E0,2.416125641E0,1.070259384E1,1.103097927E1
2.677115008E2,1.013991394E0,-3.388952637E-1,9.744735718E0,9.803208799E0
2.679118428E2,5.402265930E-1,1.758393402E0,6.252497864E0,6.517478168E0
2.681121858E2,-3.318598938E-1,1.780247955E0,1.279988251E1,1.292735108E1
2.683125288E2,-2.893183594E0,2.725083160E0,7.343129883E0,8.349739278E0
2.685128718E2,1.218316498E0,3.412304077E0,8.223149872E0,8.986006233E0
2.687132148E2,-4.604425049E-1,5.132826233E-1,1.295002029E1,1.296836505E1
2.689135577E2,1.010548553E0,1.466650085E0,5.749394073E0,6.018953652E0
2.691139007E2,5.843847656E-1,4.317022705E-1,1.322035812E1,1.324030745E1
2.693142427E2,-9.385482788E-1,5.912704468E-2,1.071965836E1,1.076082916E1
2.695145857E2,5.511538696E-1,1.210083618E0,6.245462494E0,6.385442405E0
2.697149287E2,-2.258802795E-1,2.047741699E0,1.473580673E1,1.487912188E1
2.699152721E2,-7.373666382E-1,5.295986938E-1,9.744885406E0,9.787082094E0
2.701156141E2,5.349874878E-1,2.901566162E0,7.465874634E0,8.027738278E0
2.703159571E2,-1.003662872E0,4.066892853E0,1.044093796E1,1.124989520E1
2.705163001E2,-1.171763306E0,1.735640717E0,7.388485565E0,7.679531033E0
2.707166421E2,9.264234924E-1,1.786983948E0,1.285137543E1,1.300805222E1
2.709169850E2,2.693349152E0,-5.622308350E-1,1.009815079E1,1.046627357E1
2.711173270E2,1.158441010E0,2.260748749E0,6.255042572E0,6.751187159E0
2.713176700E2,-4.727169800E-1,2.591710510E0,1.159788208E1,1.189332979E1
2.715180120E2,-2.073338470E0,3.637884979E0,8.015681305E0,9.043455441E0
2.717183550E2,5.391787720E-1,2.435585175E0,8.316405945E0,8.682476417E0
2.719186967E2,-4.451742554E-1,3.111429749E0,1.270228546E1,1.308538235E1
2.721190398E2,1.592687988E-1,1.263372803E0,5.535039825E0,5.679625274E0
2.723193818E2,2.168989563E-1,1.368005219E0,1.266680923E1,1.274231296E1
2.725197247E2,-4.784051514E-1,-1.733545074E0,1.275826904E1,1.288438896E1
2.727200667E2,1.482217712E0,1.887425079E0,5.375321960E0,5.886716313E0
2.729204091E2,1.024918671E0,2.484084320E0,1.347497864E1,1.374031231E1
2.731207511E2,-5.529501343E-1,1.370250549E0,7.802075500E0,7.940763347E0
2.733210941E2,-3.008743286E-2,2.642454987E0,8.872499542E0,9.257684469E0
2.735214361E2,-1.022523651E0,3.070415039E0,1.175670181E1,1.219397559E1
2.737217781E2,-8.280780029E-1,1.290616150E0,6.741530914E0,6.913728538E0
2.739221196E2,1.094523926E0,2.265987854E0,1.180999100E1,1.207512198E1
2.741224616E2,1.619482269E0,-1.155596924E-1,1.067011139E1,1.079293074E1
2.743228046E2,5.649252319E-1,1.806892548E0,6.237379303E0,6.518351154E0
2.745231466E2,-6.759942627E-1,2.354453888E0,1.263477585E1,1.287004204E1
2.747234886E2,-1.391955414E0,2.379601593E0,7.693251801E0,8.172280397E0
2.749238310E2,8.846603394E-1,2.649939423E0,7.932903442E0,8.410455391E0
2.751241730E2,-1.056203613E0,3.940854950E0,1.427940582E1,1.485083615E1
2.753245150E2,5.686674500E-1,4.996609497E-1,5.255870361E0,5.310105177E0
2.755248570E2,8.000862122E-1,1.674268341E0,1.286978714E1,1.300287405E1
2.757251990E2,-1.022823029E0,-1.422342224E0,1.292277695E1,1.304098878E1
2.759255415E2,9.765692139E-1,9.122030640E-1,6.700067139E0,6.832034947E0
2.761258835E2,5.583389282E-1,7.749385071E-1,1.493863495E1,1.496913779E1
2.763262255E2,2.200424194E-1,1.432221680E0,8.161478119E0,8.289113505E0
2.765265665E2,2.731819153E-1,2.871778107E0,7.329657898E0,7.876904389E0
2.767269085E2,-5.818400574E-1,2.746788025E0,1.233464996E1,1.265017676E1
2.769272495E2,-9.541159058E-1,1.234333191E0,7.726782074E0,7.882707454E0
2.771275915E2,4.462220764E-1,2.623444519E0,1.098849930E1,1.130613515E1
2.773279335E2,6.527925110E-1,-2.009571075E0,1.439586365E1,1.455009980E1
2.775282745E2,2.746788025E-1,1.911225586E0,5.492079163E0,5.821611908E0
2.777286165E2,-8.152047729E-1,1.499132538E0,1.289194107E1,1.300438779E1
2.779289593E2,5.825885010E-1,-4.206253052E-1,1.005474106E1,1.008038455E1
2.781293003E2,6.638694763E-1,2.678529968E0,5.607489166E0,6.249734412E0
2.783296423E2,-4.468208313E-1,4.183650055E0,1.300046539E1,1.366435791E1
2.785299843E2,-6.965016174E-1,1.564247131E0,5.506898346E0,5.766967399E0
2.787303253E2,9.276210022E-1,2.173180847E0,1.053613998E1,1.079784430E1
2.789306668E2,-4.646337891E-1,1.198856964E0,1.265228943E1,1.271745141E1
2.791310078E2,4.912783813E-1,6.515950012E-1,6.410569153E0,6.462300469E0
2.793313498E2,9.614506531E-1,1.728605347E0,1.381237701E1,1.395328716E1
2.795316908E2,-5.538482666E-2,-4.043092346E-1,9.292675781E0,9.301631933E0
2.797320328E2,5.279521179E-1,2.218686218E0,6.955286407E0,7.319652381E0
2.799323736E2,1.009500732E0,2.654280396E0,1.106364304E1,1.142228057E1
2.801327146E2,-1.345102844E0,2.325713654E0,6.609206085E0,7.134413132E0
2.803330566E2,-1.060694275E0,2.809657288E0,9.999356232E0,1.044061164E1
2.805333976E2,-1.108894043E0,8.132588196E-1,1.317185898E1,1.324344762E1
2.807337396E2,6.131250000E-1,1.583856354E0,5.362448730E0,5.624978187E0
2.809340804E2,-1.532812500E-1,1.753154297E0,1.297920959E1,1.309797415E1
2.811344214E2,-5.339396667E-1,5.072950745E-1,9.695637817E0,9.723570977E0
2.813347624E2,1.717827759E0,1.947599945E0,6.399043121E0,6.905927210E0
2.815351044E2,-5.150788879E-1,3.535797272E0,1.347228424E1,1.393806340E1
2.817354454E2,1.546284485E-1,1.513352966E-1,7.110812988E0,7.114103857E0
2.819357868E2,-1.703457642E-1,2.157613220E0,9.599537659E0,9.840499771E0
2.821361278E2,-1.523831177E-1,5.189707947E-1,1.424572586E1,1.425599020E1
2.823364688E2,-1.996847534E-1,5.466632080E-1,6.313720551E0,6.340487509E0
2.825368108E2,5.186714172E-1,1.700463867E0,1.209918961E1,1.222910408E1
2.827371518E2,2.659220123E0,-4.710704041E-1,1.069960007E1,1.103516201E1
2.829374926E2,2.977308655E-1,1.883533173E0,7.001989288E0,7.257010051E0
2.831378336E2,-1.802252197E-1,1.732497253E0,1.230321533E1,1.242590582E1
2.833381746E2,-2.877017212E0,3.340154114E0,6.294111328E0,7.684379933E0
2.835385156E2,9.645941162E-1,3.038231964E0,7.262597351E0,7.931369085E0
2.837388566E2,-1.065933380E0,2.095642090E0,1.388153320E1,1.407923627E1
2.839391984E2,1.793270874E-1,7.545808411E-1,5.260361023E0,5.317231285E0
2.841395394E2,-7.855664063E-1,2.153272247E0,1.281410294E1,1.301748555E1
2.843398804E2,-8.536747742E-1,-3.029699707E-1,9.227112122E0,9.271469653E0
2.845402214E2,1.609902191E0,2.148182831E0,6.153852997E0,6.713894641E0
2.847405614E2,5.550457764E-1,1.610201569E0,1.160297150E1,1.172730883E1
2.849409025E2,-1.183738403E0,2.471809845E0,6.856641541E0,7.384078394E0
2.851412435E2,1.407972107E0,2.815046082E0,8.556955719E0,9.117475587E0
2.853415845E2,-1.789528656E0,2.255509644E0,1.293609924E1,1.325263748E1
2.855419255E2,-1.978884888E-1,7.559280396E-1,5.257516937E0,5.315267764E0
2.857422665E2,2.389031982E0,9.680369568E-1,1.391132126E1,1.414812456E1
2.859426065E2,6.484515381E-1,-1.001417542E-1,1.018407211E1,1.020518704E1
2.861429475E2,1.034648438E0,1.876647491E0,6.803352356E0,7.132875050E0
2.863432885E2,5.777984619E-2,2.696193237E0,1.124731110E1,1.156610580E1
2.865436285E2,-2.828518066E0,3.877087555E0,6.614295502E0,8.171978178E0
2.867439695E2,1.173858948E0,3.305276642E0,6.274502106E0,7.188336051E0
2.869443100E2,-2.100731506E0,1.761387177E0,1.714669327E1,1.736446508E1
2.871446500E2,5.843847656E-1,8.918453979E-1,6.637197876E0,6.722297927E0
2.873449910E2,1.078656921E0,3.409609680E0,1.043674667E1,1.103243491E1
2.875453310E2,-2.149080963E0,1.313368835E0,1.392808640E1,1.415397744E1
2.877456720E2,2.176473999E-1,1.730401611E0,5.575306091E0,5.841720478E0
2.879460117E2,1.459165649E0,2.705773315E0,1.217642899E1,1.255849499E1
2.881463527E2,1.683249664E0,-5.504054260E-1,8.875493317E0,9.050450662E0
2.883466927E2,6.222560120E-1,2.402653656E0,6.919061737E0,7.350738905E0
2.885470337E2,1.170416107E0,2.280208282E0,1.269345383E1,1.294963296E1
2.887473737E2,-6.694079590E-1,1.689835968E0,8.481662292E0,8.674228949E0
2.889477143E2,9.333091736E-1,3.794309692E0,9.038803711E0,9.847224207E0
2.891480553E2,1.844165039E-1,6.162684631E-1,1.173050629E1,1.174813066E1
2.893483953E2,6.159690857E-1,1.153950348E0,5.860313416E0,6.004522683E0
2.895487353E2,2.484832764E0,4.918771362E-1,1.322005875E1,1.346054569E1
2.897490763E2,-1.422491913E0,1.137634277E-2,1.033525772E1,1.043269691E1
2.899494157E2,1.589394836E0,2.183808746E0,6.077062683E0,6.650254690E0
2.901497557E2,-6.623725891E-1,4.635260925E0,1.174038574E1,1.263966134E1
2.903500957E2,-7.244934082E-2,1.689237213E0,5.660029907E0,5.907174436E0
2.905504357E2,-7.024891663E-1,8.330177307E-1,1.489791962E1,1.493771798E1
2.907507767E2,-2.681374054E0,-1.056203613E0,9.594148865E0,1.001763572E1
2.909511170E2,7.686515808E-1,2.837349701E0,5.480852509E0,6.219414988E0
2.911514570E2,2.115101624E-1,8.653504944E-1,1.365640137E1,1.368542533E1
2.913517970E2,-4.745132446E-2,1.989812164E0,8.181536407E0,8.420162829E0
2.915521370E2,6.128256226E-1,2.620450745E0,8.337661743E0,8.761216850E0
2.917524770E2,-5.795947266E-1,3.217259674E0,1.168634811E1,1.213496692E1
2.919528171E2,-1.114133148E0,1.137484589E0,6.783443756E0,6.967802599E0
2.921531571E2,8.294252014E-1,3.415297852E0,9.557624817E0,1.018333922E1
2.923534971E2,-2.357597351E-1,-1.942211151E0,1.392045227E1,1.405726710E1
2.925538371E2,1.645079041E-1,1.457219696E0,5.982160034E0,6.159284923E0
2.927541771E2,-3.254232788E-1,1.638792114E0,1.364891693E1,1.375079901E1
2.929545161E2,1.915267181E0,-6.810836792E-1,9.625882874E0,9.838177903E0
2.931548561E2,7.758366394E-1,1.651216278E0,8.716972961E0,8.905843885E0
2.933551961E2,1.901046753E-2,4.496200104E0,1.188782913E1,1.270970724E1
2.935555361E2,-1.740879822E-1,2.112706604E0,5.903573456E0,6.272640223E0
2.937558761E2,4.379891968E-1,3.285368042E0,9.882299652E0,1.042330677E1
2.939562146E2,-1.632056122E0,1.339714050E0,1.359502899E1,1.375802508E1
2.941565546E2,-4.334985352E-1,2.022743683E0,6.368057556E0,6.695638134E0
2.943568946E2,-5.885760498E-1,3.359014893E0,1.310390030E1,1.354036949E1
2.945572336E2,-1.457968140E-1,1.192420349E0,9.285341034E0,9.362728294E0
2.947575736E2,1.131497040E0,2.419119415E0,8.069718933E0,8.500163996E0
2.949579131E2,1.756148071E0,2.594404907E0,1.149699188E1,1.191619970E1
2.951582531E2,-5.028044128E-1,8.111631775E-1,8.522527313E0,8.575795577E0
2.953585931E2,4.014651489E-1,2.827470245E0,9.248068542E0,9.678973810E0
2.955589321E2,-8.903485107E-1,2.909499664E0,1.268162842E1,1.304153396E1
2.957592721E2,6.261479187E-1,7.099736023E-1,4.842729492E0,4.934384730E0
2.959596108E2,5.968089294E-1,3.020419006E0,1.144190643E1,1.184889593E1
2.961599508E2,-8.158035278E-2,-1.865720215E0,1.260513748E1,1.274272570E1
2.963602898E2,1.049916687E0,2.444566498E0,6.130052490E0,6.682497583E0
2.965606288E2,-2.317181396E-1,2.361938324E0,1.513143402E1,1.531642065E1
2.967609688E2,-2.463876343E-1,1.702409821E0,6.730753326E0,6.947081863E0
2.969613076E2,7.488926697E-1,2.983894958E0,7.669750671E0,8.263748829E0
2.971616476E2,-3.686833191E-1,3.474574585E0,1.314446594E1,1.360094044E1
2.973619866E2,-1.791773987E-1,1.367705841E0,6.873706055E0,7.010745947E0
2.975623256E2,9.050180054E-1,2.988086243E0,1.198617462E1,1.238612526E1
2.977626646E2,-8.981323242E-3,-3.788621521E-1,1.341091187E1,1.341626529E1
2.979630052E2,-2.752775574E-1,2.548899536E0,5.755830688E0,6.300972424E0
2.981633442E2,-4.451742554E-1,9.186396790E-1,1.542542267E1,1.545916374E1
2.983636832E2,1.219514008E0,-6.256988525E-1,1.084240311E1,1.092869702E1
2.985640222E2,5.272036743E-1,2.133663025E0,5.265899506E0,5.706150999E0
2.987643612E2,7.433541870E-1,3.730691986E0,1.362317047E1,1.414430669E1
2.989647009E2,2.020797729E-1,1.441951447E0,6.311175842E0,6.476959219E0
2.991650399E2,7.223977661E-1,2.740201721E0,8.916807404E0,9.356282289E0
2.993653789E2,1.498234406E0,8.219407654E-1,1.274449768E1,1.285855801E1
2.995657179E2,8.978329468E-1,-1.341210938E-1,7.632178802E0,7.685977214E0
2.997660569E2,9.740245056E-1,1.982926483E0,1.345536942E1,1.363553033E1
2.999663958E2,1.093176727E0,6.715036011E-1,8.662785645E0,8.757271697E0
3.001667348E2,6.641688538E-1,2.556533661E0,5.617069244E0,6.207129089E0
3.003670738E2,2.062710571E-1,1.942211151E0,1.291918442E1,1.306598859E1
3.005674128E2,-1.706301727E0,2.798131256E0,7.992030487E0,8.637913835E0
3.007677518E2,7.653584290E-1,3.084635468E0,7.119345245E0,7.796526548E0
3.009680908E2,-1.471440125E-1,5.261109467E0,1.270902145E1,1.375573155E1
3.011684298E2,-1.499880981E-1,8.710386658E-1,6.373745728E0,6.434736932E0
3.013687678E2,1.473535767E0,3.062331848E0,1.101858673E1,1.153076049E1
3.015691068E2,-1.108894043E0,1.475332031E0,1.296753387E1,1.309821306E1
3.017694458E2,4.254153442E-1,1.234183502E0,6.179749146E0,6.316129086E0
3.019697853E2,1.024469604E0,1.227896576E0,1.382734589E1,1.391951013E1
3.021701243E2,2.120041351E0,1.098116455E0,8.387957153E0,8.721138704E0
3.023704633E2,1.367855530E0,2.035167847E0,7.077881470E0,7.490616998E0
3.025708013E2,-3.595523071E-1,4.470603333E0,1.308713516E1,1.383432972E1
3.027711403E2,-1.081950073E0,2.228715363E0,6.828200684E0,7.263753348E0
3.029714788E2,1.106049957E0,4.039050751E0,8.085735626E0,9.105844172E0
3.031718168E2,-1.825304260E0,2.051483917E0,1.164638123E1,1.196572261E1
3.033721558E2,2.571652222E-1,2.153871002E0,5.730233917E0,6.127060877E0
3.035724948E2,7.776329041E-1,2.122586060E0,1.210218338E1,1.231149573E1
3.037728328E2,-1.167422333E0,-6.923103333E-1,1.203886505E1,1.211513270E1
3.039731720E2,1.271755371E0,1.403631134E0,6.224057007E0,6.505876398E0
3.041735110E2,8.366102600E-1,1.927990723E0,1.451187241E1,1.466327063E1
3.043738490E2,2.032772827E0,4.245172119E-1,7.311395874E0,7.600584836E0
3.045741880E2,5.728587341E-1,2.501747589E0,7.900570679E0,8.306980509E0
3.047745260E2,-3.876937866E-2,3.326682129E0,1.150282974E1,1.197428115E1
3.049748648E2,-1.192270660E0,2.369273071E0,6.813980255E0,7.311996385E0
3.051752028E2,5.520520020E-1,3.399430847E0,8.898844757E0,9.542029633E0
3.053755418E2,2.978805542E-1,4.098926239E0,1.286948776E1,1.350976108E1
3.055758798E2,6.261479187E-1,1.287472687E0,5.556145935E0,5.737630590E0
3.057762188E2,1.205143890E0,2.762954407E0,1.177810730E1,1.215771773E1
3.059765568E2,-7.905061340E-1,-2.008822632E-1,1.515538422E1,1.517731611E1
3.061768958E2,3.061134338E-1,1.185235291E0,5.826633453E0,5.953834523E0
3.063772338E2,5.703140259E-1,2.789898376E0,1.343650864E1,1.373493922E1
3.065775718E2,1.628463593E0,1.787283325E-1,9.268725586E0,9.412391379E0
3.067779108E2,3.508703613E-1,2.680026855E0,7.708220673E0,8.168373149E0
3.069782487E2,6.277944946E-1,3.582799530E0,1.134086655E1,1.190990480E1
3.071785867E2,-1.786684570E0,2.850671997E0,6.549779663E0,7.363299955E0
3.073789247E2,2.627037048E-1,3.675606537E0,9.023984528E0,9.747378797E0
3.075792637E2,-1.789079590E0,2.227966919E0,1.367166962E1,1.396707530E1
3.077796017E2,4.489164734E-1,1.322050781E0,6.669530640E0,6.814101791E0
3.079799403E2,-2.305206299E-2,2.298470306E0,1.217538116E1,1.239045615E1
3.081802783E2,1.281335449E-1,-7.625143433E-1,1.214873657E1,1.217331699E1
3.083806163E2,2.300715637E0,1.490749969E0,4.847818909E0,5.569288652E0
3.085809543E2,-6.447093201E-1,4.290677490E0,1.229842529E1,1.304135070E1
3.087812933E2,7.821235657E-1,-3.487747192E-2,8.989256744E0,9.023284908E0
3.089816304E2,-4.258644104E-1,2.457290039E0,6.972500610E0,7.405092815E0
3.091819684E2,9.934840393E-1,2.754122772E0,1.242775635E1,1.276798068E1
3.093823064E2,-3.022215271E-1,7.294331360E-1,8.087232513E0,8.125683988E0
3.095826444E2,-3.727249146E-1,3.453019409E0,7.667954407E0,8.417825829E0
3.097829824E2,-5.525010681E-1,3.898792419E0,1.242566071E1,1.303468004E1
3.099833207E2,7.682025146E-1,1.359023895E0,5.113217010E0,5.346220090E0
3.101836587E2,8.469387817E-1,3.359913025E0,9.966125336E0,1.055130205E1
3.103839967E2,-3.932322693E-1,1.817221069E0,1.363544495E1,1.376162356E1
3.105843347E2,-5.080435181E-1,1.737586670E0,4.449048157E0,4.803264010E0
3.107846727E2,1.148561554E0,2.764002228E0,1.281949173E1,1.316428009E1
3.109850116E2,1.434167633E0,-1.835632782E0,1.290286835E1,1.311146049E1
3.111853496E2,1.304836578E0,1.188528442E0,5.416486359E0,5.696799349E0
3.113856876E2,4.584965515E-1,8.984317017E-1,1.592104202E1,1.595296141E1
3.115860246E2,-1.382375336E0,-5.081932068E-1,1.064915497E1,1.075052201E1
3.117863626E2,1.591340790E0,1.933678894E0,6.209088135E0,6.695091862E0
3.119867003E2,7.484436035E-1,2.479144592E0,1.429302750E1,1.452573443E1
3.121870383E2,7.649093628E-1,5.248086548E-1,6.696025543E0,6.759975483E0
3.123873763E2,4.237687683E-1,2.711461487E0,8.106692047E0,8.558624849E0
3.125877143E2,5.150788879E-1,3.106490021E0,1.225127335E1,1.264947766E1
3.127880513E2,-1.854044495E0,2.356699219E0,6.518943787E0,7.175523694E0
3.129883890E2,2.392025757E-1,3.230132904E0,8.125552826E0,8.747318742E0
3.131887270E2,-1.229992218E0,3.233875122E0,1.397434021E1,1.439628471E1
3.133890640E2,6.849755859E-1,1.230291595E0,5.975124664E0,6.138804747E0
3.135894020E2,5.292993164E-1,2.177671509E0,1.099104401E1,1.121719481E1
3.137897400E2,-1.734143829E0,-3.827540588E-1,1.331166824E1,1.342960412E1
3.139900768E2,7.421566772E-1,1.256038055E0,6.116580505E0,6.288162308E0
3.141904148E2,2.351310425E0,3.826941833E0,1.064167053E1,1.155072709E1
3.143907528E2,1.174457703E0,-1.035845947E0,1.274479706E1,1.284064561E1
3.145910898E2,1.386117554E0,1.330882416E0,7.515571289E0,7.757343726E0
3.147914278E2,5.932164001E-1,2.231858826E0,9.344917145E0,9.626036358E0
3.149917648E2,1.920506287E-1,-9.610015869E-2,1.164727936E1,1.164925899E1
3.151921028E2,1.111289062E0,2.179168396E0,6.798262939E0,7.224964863E0
3.153924408E2,4.671784973E-1,3.911665649E0,1.389485550E1,1.444252032E1
3.155927778E2,-1.158740387E0,1.740730133E0,1.040171951E1,1.060983457E1
3.157931158E2,-1.352287903E0,2.409988403E0,9.076076202E0,9.487459402E0
3.159934531E2,-1.157991943E0,3.217259674E0,9.877509613E0,1.045260261E1
3.161937901E2,-1.854044495E0,9.042695618E-1,1.255783585E1,1.272613160E1
3.163941281E2,-2.042801971E0,1.732197876E0,8.182584229E0,8.609775493E0
3.165944651E2,-7.448510742E-1,3.057990875E0,8.537645874E0,9.099313622E0
3.167948031E2,6.896159363E-1,3.041375427E0,1.028960266E1,1.075181183E1
3.169951398E2,-2.249821472E-1,2.188299408E0,8.616531830E0,8.892912461E0
3.171954778E2,-3.969744873E-1,3.522325287E0,8.843908997E0,9.527806175E0
3.173958148E2,-1.798659668E0,3.052003326E0,1.128697861E1,1.182986843E1
3.175961518E2,-9.764195251E-1,2.711910553E0,7.540419617E0,8.072532560E0
3.177964898E2,3.276686096E-1,3.160377960E0,7.658074951E0,8.291047432E0
3.179968272E2,-1.416654053E0,4.878654785E0,1.119701569E1,1.229558219E1
3.181971642E2,-2.196981354E0,2.959196320E0,7.159312134E0,8.052286641E0
3.183975022E2,-1.587299194E0,4.330345001E0,8.392148438E0,9.575988824E0