"time","Gyroscope x","Gyroscope y","Gyroscope z","abs Gyroscope"
2.215342084E-1,-2.906804085E-1,-7.425827980E-1,-2.733993530E-1,8.430133558E-1
4.219232085E-1,3.171018064E-1,5.508498549E-1,-1.364037097E-1,6.500731423E-1
6.223112084E-1,8.153154850E-1,-5.519698858E-1,2.409709059E-2,9.848810917E-1
8.227004586E-1,-1.310307384E-1,2.275452167E-1,4.173852876E-2,2.658721212E-1
1.023088458E0,3.542752862E-1,4.368818998E-1,-2.792434096E-1,6.279758392E-1
1.223477459E0,-3.805200458E-1,1.829629689E-1,-3.993442953E-1,5.811598914E-1
1.423865458E0,3.380039707E-2,-1.996236593E-1,-6.017534062E-2,2.112182374E-1
1.624254459E0,6.402282119E-1,5.703674555E-1,7.989055663E-2,8.611583470E-1
1.824642584E0,-1.309134662E-1,3.908831477E-1,3.727975488E-1,5.557931118E-1
2.025031583E0,-3.237891197E-1,-4.143144488E-1,-2.705474496E-1,5.913474267E-1
2.225419584E0,1.198739171E0,1.107724980E-1,-3.504219279E-2,1.204356302E0
2.425808583E0,-6.370593905E-1,8.815414459E-2,-1.405235380E-1,6.583028824E-1
2.626196584E0,2.646046877E-1,1.723234057E-1,1.358678639E-1,3.437601975E-1
2.826584584E0,6.176478863E-1,1.064473391E0,6.394921541E-1,1.386918428E0
3.026973584E0,4.853764921E-2,-1.625414044E-1,1.461383402E-1,2.239018223E-1
3.227361584E0,4.981693625E-2,-3.428919911E-1,-2.341889441E-1,4.182117959E-1
3.427750584E0,-9.624867886E-2,2.452241182E-1,9.272019565E-2,2.792771223E-1
3.628138584E0,-4.059033394E-1,-1.231121421E-1,-3.016723692E-1,5.205000853E-1
3.828527709E0,-2.426740830E-4,1.766979098E-1,6.138134003E-1,6.387402450E-1
4.028915708E0,9.050989896E-2,-4.423752725E-1,2.736542821E-1,5.279910886E-1
4.229304709E0,-5.096211433E-1,-1.613364667E-1,-1.165013239E-1,5.470975449E-1
4.429693709E0,-1.450960040E-1,-1.829177737E-1,-2.182622552E-1,3.196094091E-1
4.630082459E0,-3.627480865E-1,1.694232039E-2,2.149303257E-2,3.637790083E-1
4.830471458E0,-1.873389632E-2,3.214627504E-1,1.512898058E-1,3.557778297E-1
5.030860459E0,6.419242360E-3,-4.419226646E-1,-1.933358163E-1,4.824060386E-1
5.231248458E0,-3.730256259E-1,4.062001407E-1,1.944788732E-2,5.518377409E-1
5.431637459E0,-1.214475110E-1,-2.679251432E-1,-5.016566515E-1,5.815434432E-1
5.632025834E0,4.896228611E-1,2.658327110E-3,-5.318846107E-1,7.229376542E-1
5.832413834E0,4.094681889E-2,1.359634697E-1,4.845382646E-2,1.500349305E-1
6.032802834E0,6.869221926E-1,-5.298370719E-1,3.283920288E-1,9.275940631E-1
6.233191833E0,1.793791950E-1,5.241055489E-1,5.312416553E-1,7.675162658E-1
6.433579834E0,-1.450825483E-1,8.672549576E-2,1.399372071E-1,2.194371877E-1
6.633969083E0,3.587218523E-1,1.646330655E-1,1.284669042E-1,4.150772928E-1
6.834358084E0,-4.380408823E-1,-2.843509912E-1,-3.228081763E-2,5.232373764E-1
7.034746083E0,-4.743990302E-2,-1.839917153E-1,-4.187529162E-2,1.945688458E-1
7.235135084E0,-7.763521075E-1,-4.648807347E-1,-1.941149980E-1,9.254822120E-1
7.435524084E0,-5.407246947E-1,7.129790783E-1,6.545387208E-2,8.972215841E-1
7.635912959E0,2.927816510E-1,-4.120941088E-2,-3.971286118E-2,2.983226811E-1
7.836300958E0,5.446574092E-1,-1.165500581E-1,-2.643912733E-1,6.165536107E-1
8.036689959E0,-1.171143353E-1,2.689506114E-1,-1.138608009E-1,3.146656652E-1
8.237078959E0,6.302037239E-1,-2.296490669E-1,2.349019796E-2,6.711536463E-1
8.437467958E0,3.579909727E-2,3.739875853E-1,3.869622648E-1,5.393404154E-1
8.637856000E0,2.861838415E-2,4.169139639E-2,1.269427985E-1,1.366442774E-1
8.838245000E0,5.605283976E-1,-1.149867997E-1,7.509540021E-2,5.771077609E-1
9.038634000E0,-3.192365170E-1,-2.568207681E-1,4.021916911E-2,4.116873113E-1
9.239023000E0,-2.204765230E-1,2.096772939E-1,1.746442914E-1,3.508205999E-1
9.439412000E0,-1.702126265E-1,1.596759707E-1,4.139874876E-1,4.752414057E-1
9.639799833E0,-6.109678149E-1,2.263745368E-1,1.060645580E-1,6.601339199E-1
9.840188833E0,-1.772853732E-2,5.771466717E-2,-3.885046244E-1,3.931680646E-1
1.004057783E1,8.517079949E-1,-5.744129419E-1,-5.564965010E-1,1.168351442E0
1.024096683E1,-4.164257348E-1,1.709795147E-1,-3.166832924E-1,5.503932183E-1
1.044135483E1,5.254642367E-1,1.845859550E-2,2.777248919E-1,5.946297162E-1
1.064174458E1,-2.383363694E-1,-4.358184934E-1,1.719578952E-1,5.256534047E-1
1.084213358E1,-2.547098100E-1,-1.254439950E-1,2.205591351E-1,3.595269326E-1
1.104252258E1,-1.147575900E-1,-1.718391925E-1,-8.513280749E-2,2.234851392E-1
1.124291158E1,-1.164928898E-1,2.267406136E-2,-8.134863526E-2,1.438829625E-1
1.144329958E1,-4.750369787E-1,4.528947547E-2,1.336202621E-1,4.955458023E-1
1.164368762E1,-4.264071882E-1,-6.421490014E-2,-2.267840803E-1,4.872141855E-1
1.184407663E1,-2.177776396E-1,2.334191948E-1,2.508437932E-1,4.059978194E-1
1.204446563E1,7.834587246E-2,-6.512296945E-2,-4.844422638E-1,4.950387701E-1
1.224485363E1,7.928025723E-1,1.565852016E-1,-1.135673970E-1,8.160590650E-1
1.244524263E1,-2.369564027E-1,-5.705618532E-4,-2.231128812E-1,3.254658508E-1
1.264563246E1,5.496738553E-1,8.834927529E-2,5.592972040E-1,7.891516357E-1
1.284602146E1,-1.415739655E-1,1.696204208E-2,2.324577868E-1,2.727040910E-1
1.304641046E1,-2.102369517E-1,-8.649041504E-2,6.898596138E-2,2.375694227E-1
1.324679846E1,2.264394760E-1,-1.917691678E-1,-2.910967171E-1,4.156772170E-1
1.344718746E1,-5.157322288E-1,-6.518190354E-2,-3.485501111E-1,6.258718657E-1
1.364757571E1,-2.940173820E-2,5.438838154E-2,3.132853508E-1,3.193278398E-1
1.384796471E1,8.558087945E-1,-1.413964629E-1,2.761664242E-2,8.678504084E-1
1.404835371E1,-5.304020271E-2,-3.236208856E-2,5.874358490E-2,8.550658832E-2
1.424874171E1,1.395953000E-1,8.973105997E-2,-4.528736174E-1,4.823204580E-1
1.444913071E1,-1.553917080E-1,1.684321910E-1,2.057054341E-1,3.079459555E-1
1.464952000E1,-8.734449744E-2,6.973459572E-2,-7.566316426E-2,1.349699578E-1
1.484990900E1,5.246129036E-1,1.096320897E-1,5.837785006E-1,7.924867390E-1
1.505029800E1,-9.582950734E-3,-2.517947853E-1,1.300024837E-1,2.835367571E-1
1.525068700E1,-5.219380371E-3,-1.520778239E-1,2.058434114E-2,1.535533183E-1
1.545107500E1,-1.193065718E-1,1.746813022E-2,-4.714736044E-1,4.866482850E-1
1.565146396E1,-4.729411006E-1,-1.661228947E-2,-5.194638371E-1,7.027033022E-1
1.585185296E1,-6.340543628E-1,4.200907946E-1,5.306603760E-2,7.624416141E-1
1.605224196E1,9.164050817E-1,-1.796776243E-2,3.440687060E-1,9.790323737E-1
1.625262996E1,3.053313196E-1,3.647407293E-1,2.614776790E-1,5.428016129E-1
1.645301896E1,4.297365546E-1,2.062844336E-1,-2.976443991E-2,4.776114486E-1
1.665340783E1,-1.317035109E-1,1.619162410E-1,2.458578162E-2,2.101598072E-1
1.685379683E1,-6.067246199E-1,-4.211842269E-2,-3.816526011E-2,6.093810901E-1
1.705418583E1,2.015989833E-2,2.327426570E-3,3.723165691E-1,3.728692345E-1
1.725457383E1,2.733544260E-2,3.933213353E-1,3.784986734E-1,5.465438180E-1
1.745496283E1,-5.354673788E-2,-1.695739925E-1,-3.364727199E-1,3.805738868E-1
1.765535208E1,5.833678246E-1,2.434704304E-1,-2.186006010E-1,6.688662736E-1
1.785574108E1,-2.153017223E-1,1.069928706E-1,-3.176466227E-1,3.983737979E-1
1.805613008E1,4.647508264E-1,3.374449611E-1,1.527168900E-1,5.942935982E-1
1.825651808E1,3.590847552E-1,-2.811308252E-3,8.942893147E-1,9.636924527E-1
1.845690708E1,4.127610102E-2,1.064011008E-1,4.785149097E-1,4.919364081E-1
1.865729621E1,5.098221302E-1,7.625196874E-2,-1.665499061E-1,5.417304112E-1
1.885768421E1,-3.596028686E-1,-6.378363818E-2,-4.284650087E-2,3.677205436E-1
1.905807321E1,-3.667913079E-1,-1.308546960E-1,-2.436085138E-3,3.894415868E-1
1.925846221E1,-1.992589682E-1,2.891378105E-1,2.928116620E-1,4.572127287E-1
1.945885121E1,9.965828061E-2,1.635219753E-1,3.369289041E-1,3.875465078E-1
1.965923871E1,-1.203802824E-1,-4.801894072E-3,-6.970030665E-1,7.073384942E-1
1.985962771E1,5.517244935E-1,2.363986969E-1,-2.960116565E-1,6.692586656E-1
2.006001671E1,2.559993416E-2,-2.484077662E-1,-3.618956804E-1,4.396933687E-1
2.026040471E1,5.101742148E-1,3.497912288E-1,2.783005536E-1,6.782940596E-1
2.046079371E1,-1.910190731E-1,-9.828507155E-2,4.443094730E-1,4.935171217E-1
2.066118296E1,4.736585915E-2,-1.247881651E-1,2.465885282E-1,2.803952799E-1
2.086157096E1,1.258554906E-1,3.735879809E-2,-4.420774281E-1,4.611591230E-1
2.106195996E1,-3.752544820E-1,-2.854962647E-1,-8.044008017E-1,9.324080079E-1
2.126234896E1,-4.715427160E-1,-4.993591085E-2,-4.500150979E-1,6.537275553E-1
2.146273696E1,7.043720484E-1,-4.061384499E-1,-2.836556546E-2,8.135680846E-1
2.166312650E1,-4.812924266E-1,2.148386985E-1,3.368928134E-1,6.255356377E-1
2.186351550E1,2.290264517E-1,-2.370234132E-1,-4.407512844E-1,5.503588908E-1
2.206390350E1,3.820220008E-2,2.350449376E-2,3.114218712E-1,3.146354258E-1
2.226429250E1,7.389988750E-2,-1.138019562E-1,1.057885960E-1,1.720561119E-1
2.246468150E1,5.063901469E-2,3.406292200E-1,5.483640432E-1,6.475304620E-1
2.266506913E1,-1.314450353E-1,-2.653611004E-1,2.608973980E-1,3.946666482E-1
2.286545813E1,-8.682008088E-2,7.723895460E-2,-1.489245147E-1,1.888970450E-1
2.306584713E1,1.504154503E-1,-4.026620984E-1,-4.465227723E-1,6.197936426E-1
2.326623513E1,-1.994189024E-1,-2.775182202E-2,-4.001860321E-1,4.479809399E-1
2.346662413E1,4.361319169E-2,-8.709743619E-2,1.863568425E-1,2.102782600E-1
2.366701258E1,3.368729055E-1,5.002114773E-1,7.253689766E-1,9.433212754E-1
2.386740058E1,-1.628733426E-1,-1.476829499E-1,4.846683443E-1,5.322042685E-1
2.406778958E1,3.454704881E-1,4.988064468E-1,3.396494091E-1,6.953556288E-1
2.426817758E1,-2.322535366E-1,-1.978106350E-1,3.342925012E-1,4.525728990E-1
2.446856658E1,-2.906302810E-1,-1.321638823E-1,1.412368417E-1,3.491147339E-1
2.466895588E1,-4.634718597E-1,-5.667375326E-1,9.120261669E-2,7.377774142E-1
2.486934387E1,-4.347485676E-2,3.225960135E-1,4.999229610E-1,5.965578078E-1
2.506973288E1,2.993798852E-1,-3.460099101E-1,-7.051267475E-2,4.629505490E-1
2.527012087E1,1.198955417E0,2.771930099E-1,1.121424884E-2,1.230632283E0
2.547050988E1,-1.449227035E-1,5.904850960E-1,1.236906201E-1,6.204632205E-1
2.567089938E1,-1.711921692E-1,8.546976000E-2,1.886093467E-1,2.686732669E-1
2.587128738E1,5.785655975E-2,3.165721893E-1,5.025032759E-1,5.967200976E-1
2.607167638E1,1.680028588E-1,-1.500319242E-1,1.910646260E-1,2.953645716E-1
2.627206438E1,-7.378705144E-1,2.246624045E-2,-3.407804966E-1,8.130737819E-1
2.647245338E1,1.047426313E-1,-2.332489491E-1,-3.907969594E-1,4.670100154E-1
2.667284146E1,-3.494538367E-1,1.909354478E-1,-1.220785975E-1,4.165063183E-1
2.687323046E1,-6.119865179E-1,1.146138981E-1,8.535063267E-2,6.284493410E-1
2.707361846E1,-3.849649429E-1,3.297712207E-1,1.133750230E-1,5.194236817E-1
2.727400746E1,5.282568932E-1,-2.233447880E-2,-1.978106350E-1,5.645203463E-1
2.747439546E1,6.841667891E-1,-2.684425712E-1,-7.272147536E-1,1.033918230E0
2.767478425E1,-2.163316458E-1,1.561716646E-1,-6.416709423E-1,6.949320600E-1
2.787517325E1,2.600910664E-1,1.013225988E-1,7.394917309E-2,2.887596094E-1
2.807556125E1,-1.157165272E-3,1.736705303E-1,1.751245409E-1,2.466402177E-1
2.827595025E1,-4.913071990E-1,-1.039964333E-1,3.635676950E-2,5.035075338E-1
2.847633925E1,2.466761023E-1,-6.727673113E-2,-2.348884642E-1,3.472000124E-1
2.867672833E1,-1.458283514E-1,-5.945980549E-3,-1.393697411E-1,2.018048252E-1
2.887711733E1,2.094607987E-2,1.785627007E-2,-3.480897248E-1,3.491762322E-1
2.907750533E1,-5.511799827E-3,-4.942286313E-1,-1.330531090E-1,5.118549108E-1
2.927789433E1,-4.967989326E-1,-2.337703407E-1,-2.222892046E-1,5.923430105E-1
2.947828333E1,1.160171703E-1,-4.554124177E-2,-6.111261845E-1,6.237060220E-1
2.967867146E1,2.008969784E-1,7.542006671E-2,-5.233680010E-1,5.656517010E-1
2.987906046E1,-2.469568253E-1,2.508528233E-1,-2.542094588E-1,4.342087763E-1
3.007944946E1,2.827520072E-1,-5.277270675E-1,-1.993854195E-1,6.310301901E-1
3.027983846E1,4.028560966E-2,-5.423394591E-2,-2.539036423E-2,7.217286076E-2
3.048022746E1,-1.153441444E-1,-2.593869567E-1,-2.886559665E-1,4.048556928E-1
3.068061671E1,3.669781685E-1,-6.569905281E-1,-7.764251232E-1,1.081270319E0
3.088100571E1,-6.640652418E-1,-2.974702716E-1,-1.792483926E-1,7.494005565E-1
3.108139471E1,-8.490266651E-2,2.208559215E-2,7.726810127E-2,1.169042156E-1
3.128178371E1,-4.293524027E-1,1.442021038E-2,2.932332456E-1,5.201318722E-1
3.148217271E1,-2.343325466E-1,1.288315207E-1,1.937370449E-1,3.302171190E-1
3.168256158E1,2.616582811E-1,-2.759575844E-3,-4.889557958E-1,5.545723051E-1
3.188295058E1,2.338930815E-1,1.272489280E-1,-1.660102755E-1,3.137796597E-1
3.208333958E1,-8.622096479E-2,-1.572995074E-2,-2.543525696E-1,2.690292099E-1
3.228372958E1,6.756083965E-1,-1.503287256E-2,4.552156031E-1,8.147968692E-1
3.248411858E1,-2.837832272E-1,-2.736336887E-1,9.035629034E-2,4.044410647E-1
3.268450850E1,-1.031766459E-1,-2.286253721E-1,-1.196320131E-1,2.778971025E-1
3.288489750E1,1.342932433E-1,-9.443114698E-2,-2.483498752E-1,2.977072005E-1
3.308528650E1,-5.196503997E-1,3.920141608E-2,-1.372154653E-1,5.388890172E-1
3.328567550E1,-1.658545136E-1,-3.521657735E-2,-2.159043849E-1,2.745225499E-1
3.348606450E1,-1.353977770E-1,-4.505566359E-1,-1.455567181E-1,4.924638041E-1
3.368645300E1,-2.599132955E-1,2.869738340E-1,2.593506873E-1,4.660168254E-1
3.388684200E1,1.687619463E-2,-1.266009808E-1,-4.796528518E-1,4.963662685E-1
3.408723100E1,5.612469316E-1,-9.812135994E-2,-1.893996000E-1,6.004149631E-1
3.428762000E1,8.815297484E-2,8.694638498E-3,-1.833017468E-1,2.035830890E-1
3.448800900E1,3.616826236E-1,-5.167146921E-1,3.979160786E-1,7.457517005E-1
3.468839813E1,-1.214518026E-1,3.809089959E-2,4.723522663E-1,4.892015131E-1
3.488878713E1,-2.125831693E-2,1.029450968E-1,3.697260618E-1,3.843786802E-1
3.508917613E1,-4.500324726E-1,3.956355527E-2,-6.437143683E-1,7.864239883E-1
3.528956513E1,-4.532492161E-1,-1.069466919E-1,-3.630031943E-1,5.904606387E-1
3.548995413E1,-2.755953670E-1,2.345843762E-1,2.569588721E-1,4.438586462E-1
3.569034283E1,9.111886621E-1,-7.636745274E-2,2.911577225E-1,9.596195001E-1
3.589073183E1,-3.773964569E-2,7.588447630E-2,2.783517838E-1,2.909681256E-1
3.609112083E1,1.244060621E-1,4.690418951E-3,-3.211075962E-1,3.443965108E-1
3.629150983E1,1.183699667E-1,-7.715447992E-2,2.274358720E-1,2.677523831E-1
3.649189883E1,-1.773036867E-1,-2.295791358E-1,-2.726321518E-1,3.980847487E-1
3.669228846E1,3.161230683E-1,3.111599088E-1,7.141367197E-1,8.406815911E-1
3.689267746E1,-1.277773827E-1,-2.963467538E-1,5.802777410E-1,6.639809596E-1
3.709306546E1,-8.395611495E-2,1.735537797E-1,1.647569835E-1,2.536028535E-1
3.729345446E1,-4.566676915E-2,-2.548094094E-1,-7.423471212E-1,7.861886143E-1
3.749384346E1,-2.108089477E-1,1.907373518E-1,-2.187990993E-1,3.587397325E-1
3.769423158E1,-3.190815747E-1,2.539534569E-1,2.944168635E-2,4.088669985E-1
3.789461958E1,1.125786066E0,-3.300276399E-1,1.534421444E-1,1.183155527E0
3.809500858E1,-2.596409917E-1,2.159215063E-1,4.826087058E-1,5.890218199E-1
3.829539758E1,2.430618554E-1,-1.333773285E-1,-4.534180760E-1,5.314663950E-1
3.849578658E1,1.132849455E-1,1.452670842E-1,2.475099415E-1,3.085403957E-1
3.869617508E1,-2.931259871E-1,-2.205751240E-1,-2.859606743E-1,4.651341063E-1
3.889656408E1,3.643494546E-1,2.394093126E-1,3.101025820E-1,5.350055658E-1
3.909695208E1,2.481176257E-1,-1.028679758E-1,5.762569904E-1,6.357800686E-1
3.929734108E1,9.116885811E-2,2.935941517E-1,8.358170092E-2,3.185830933E-1
3.949772908E1,-4.660245776E-1,-7.553982139E-1,-9.511064291E-1,1.300926135E0
3.969811800E1,-1.930283010E-1,1.243362501E-1,-3.627679646E-1,4.293250799E-1
3.989850600E1,-1.503902674E-1,-1.972730458E-1,-1.181288734E-1,2.747513746E-1
4.009889500E1,1.196443558E0,5.201058835E-2,3.670148551E-1,1.252550275E0
4.029928300E1,-7.912122458E-2,-5.333026871E-3,3.493734300E-1,3.582602447E-1
4.049967200E1,5.075449944E-1,9.713681042E-2,-3.375495970E-1,6.172335147E-1
4.070006000E1,-2.101120204E-1,1.126597822E-1,1.389530450E-1,2.759478870E-1
4.090044800E1,-4.052434266E-1,-1.969502717E-1,-3.520779312E-1,5.718133558E-1
4.110083700E1,2.050562054E-1,-1.096539795E-1,5.584699512E-1,6.049468811E-1
4.130122500E1,7.011859119E-2,2.387254387E-1,5.926369429E-1,6.427480050E-1
4.150161300E1,5.718729272E-2,9.885080159E-2,-1.498988420E-1,1.884450324E-1
4.170200062E1,1.221993640E-1,-2.794970274E-1,-3.833758831E-1,4.899268727E-1
4.190238963E1,3.491387889E-2,1.589295417E-1,-3.986155391E-1,4.305484016E-1
4.210277762E1,5.072647929E-1,1.259011626E-1,3.453509808E-1,6.264471030E-1
4.230316563E1,5.823823437E-2,2.699435651E-1,8.369801044E-1,8.813608316E-1
4.250355462E1,2.004184425E-1,-9.436579049E-2,3.502403498E-1,4.144161642E-1
4.270394283E1,-1.105623394E-1,2.920242548E-1,-3.975539804E-1,5.055208834E-1
4.290433083E1,-1.933716238E-1,-1.955145001E-1,-3.184725344E-1,4.207650886E-1
4.310471983E1,-6.923786998E-1,-1.629475802E-1,-3.844072521E-1,8.085227970E-1
4.330510783E1,-7.078493237E-1,-2.101042569E-1,1.666457802E-1,7.569447007E-1
4.350549683E1,-2.334789000E-2,2.838899493E-1,4.301816523E-1,5.159407730E-1
4.370588546E1,1.146211028E-1,-3.329429775E-2,-2.303210646E-1,2.594114498E-1
4.390627346E1,7.882311344E-1,1.005067080E-1,-1.314435452E-1,8.054112771E-1
4.410666246E1,-3.636281788E-1,-4.880839959E-2,-3.817515969E-1,5.294733176E-1
4.430705046E1,5.899438858E-1,1.218095794E-1,2.287872434E-1,6.443717598E-1
4.450743846E1,5.806275085E-2,1.569960266E-1,7.331008911E-1,7.519680525E-1
4.470782696E1,1.211820096E-1,-9.897866845E-2,3.054455519E-1,3.431892210E-1
4.490821496E1,-6.229713559E-2,2.963261604E-1,-1.719955355E-1,3.482421438E-1
4.510860296E1,-2.541668713E-1,-2.116778344E-1,-4.074645638E-1,5.248196593E-1
4.530899196E1,-4.159446061E-1,2.780072391E-3,-3.007032871E-1,5.132641727E-1
4.550937996E1,5.599955563E-3,-4.553095102E-1,-3.875587136E-2,4.569902922E-1
4.570976796E1,-2.678053379E-1,4.199694991E-1,3.815464079E-1,6.274326582E-1
4.591015596E1,1.420552880E-1,-5.729840994E-1,-6.089255810E-1,8.481042661E-1
4.611054496E1,2.891555727E-1,6.509874016E-2,-1.977109350E-2,2.970516576E-1
4.631093296E1,-1.812649518E-1,-1.101098880E-1,-1.385284066E-1,2.533205275E-1
4.651132096E1,3.700421751E-1,3.665859699E-1,6.568179727E-1,8.382877393E-1
4.671170912E1,8.481678367E-2,-3.401004672E-1,4.905282855E-1,6.028932024E-1
4.691209713E1,-5.360907912E-1,2.566264272E-1,3.784763627E-3,5.943608197E-1
4.711248513E1,4.383860528E-2,-4.047965109E-1,-8.360867500E-1,9.299586508E-1
4.731287413E1,-2.608437538E-1,2.581408918E-1,-2.009206414E-1,4.183841394E-1
4.751326213E1,2.795194685E-1,2.077158839E-1,2.714250386E-1,4.415298102E-1
4.771365000E1,7.325372100E-1,-1.926678121E-1,4.287767410E-1,8.703913737E-1
4.791403800E1,3.043104149E-2,1.113932878E-1,3.923124969E-1,4.089542860E-1
4.811442600E1,-3.405732661E-2,2.722149491E-1,-5.762122273E-1,6.381860316E-1
4.831481400E1,-4.118447006E-1,-4.003179073E-1,-2.346141040E-1,6.204145889E-1
4.851520200E1,-2.641421258E-1,-2.467060834E-1,-2.821604609E-1,4.585296937E-1
4.871558958E1,-2.062799037E-1,6.048771739E-2,3.145851791E-1,3.810170567E-1
4.891597758E1,-7.714971155E-2,2.110774368E-1,3.816524744E-1,4.429044745E-1
4.911636558E1,-1.009100005E-1,-1.788769364E-1,-3.001502454E-1,3.636893680E-1
4.931675358E1,8.887403607E-1,4.913248420E-1,2.530943155E-1,1.046573582E0
4.951714158E1,1.676344126E-2,6.050832570E-3,-2.364062667E-1,2.370770939E-1
4.971752875E1,5.782814622E-1,2.630276084E-1,3.758513629E-1,7.381444434E-1
4.991791675E1,-7.397344708E-2,3.181889057E-1,6.010033488E-1,6.840477146E-1
5.011830375E1,1.120196581E-1,5.684713833E-3,5.523802638E-1,5.636529745E-1
5.031869175E1,-3.223134577E-1,2.489654720E-1,-1.442622840E-1,4.320664045E-1
5.051907875E1,-2.327234298E-1,-7.622046769E-2,-6.183465719E-1,6.650731069E-1
5.071946737E1,-4.751278460E-1,-3.942333758E-1,-2.445349395E-1,6.640510231E-1
5.091985438E1,3.260104954E-1,-1.199485436E-1,-2.278963774E-1,4.154602930E-1
5.112024138E1,-1.045286357E-1,2.543561757E-1,3.281490803E-1,4.281414704E-1
5.132062838E1,3.145802915E-1,-7.456054688E-1,-6.238222718E-1,1.021783980E0
5.152101538E1,3.794798255E-1,3.638613224E-1,3.190522194E-1,6.149750553E-1
5.172140221E1,-5.310711265E-1,-7.916598767E-2,-2.687312663E-1,6.004334171E-1
5.192178921E1,3.089801967E-1,-5.281066895E-2,4.773555398E-1,5.710744611E-1
5.212217621E1,7.500074059E-2,-2.256785184E-1,3.381308317E-1,4.133864586E-1
5.232256321E1,-4.004420340E-2,3.894274309E-2,2.874800265E-1,2.928563489E-1
5.252295021E1,-2.968291938E-1,-1.639788300E-1,-4.403910041E-1,5.558244898E-1
5.272333671E1,-1.733728349E-1,2.677904367E-1,-4.853429794E-1,5.807991611E-1
5.292372271E1,-3.406561911E-1,4.887833819E-2,-1.860509813E-1,3.912169476E-1
5.312410971E1,1.146358252E0,-3.474749327E-1,5.763124302E-2,1.199248694E0
5.332449571E1,-1.713529676E-1,-4.742274806E-2,2.462021410E-1,3.036877521E-1
5.352488271E1,4.969408214E-1,2.050555646E-1,-7.064685225E-1,8.877475643E-1
5.372526938E1,-3.803268075E-1,-4.184434712E-1,2.978205867E-2,5.662423422E-1
5.392565638E1,-4.807504714E-1,-1.615858972E-1,-2.405300736E-1,5.613249809E-1
5.412604238E1,-7.934124768E-2,2.766803801E-1,5.405606627E-1,6.124156239E-1
5.432642937E1,1.851174533E-1,3.198347613E-2,4.379496574E-1,4.765409917E-1
5.452681538E1,9.337505698E-2,2.033013254E-1,-1.764648594E-2,2.244141900E-1
5.472720058E1,5.938847065E-1,-4.170502126E-1,-7.834368944E-2,7.299093493E-1
5.492758658E1,-2.160945237E-1,-2.071622573E-2,-6.967557669E-1,7.297907946E-1
5.512797358E1,1.880970299E-1,1.208346859E-1,2.360534817E-1,3.251196091E-1
5.532835958E1,4.138934612E-1,-2.140507549E-1,5.198006034E-1,6.980817933E-1
5.552874558E1,-1.599839628E-1,2.447644919E-1,3.888693154E-1,4.865427723E-1
5.572913221E1,3.026731312E-1,4.500772059E-1,-3.202436268E-1,6.298702217E-1
5.592951821E1,-2.923130095E-1,-1.172242388E-1,-6.442374433E-5,3.149419341E-1
5.612990421E1,-6.062436104E-1,-2.556804717E-1,-2.774403691E-1,7.140567044E-1
5.633029021E1,-1.491930634E-1,3.689581454E-1,1.738891304E-1,4.343110784E-1
5.653067621E1,7.415926456E-2,1.650162488E-1,4.479684532E-1,4.831207861E-1
5.673106221E1,2.191206217E-1,1.832040846E-1,-2.421480268E-1,3.744505980E-1
5.693144821E1,7.575799823E-1,-1.154837664E-3,-1.959768832E-1,7.825188189E-1
5.713183321E1,-1.240246072E-1,-2.576000094E-1,-4.751614332E-1,5.545432857E-1
5.733221921E1,3.699752986E-1,5.451116338E-2,2.689892352E-1,4.606608266E-1
5.753260521E1,-1.479186863E-1,2.212658525E-1,6.729555130E-1,7.236764731E-1
5.773299121E1,6.220223382E-2,-4.046243727E-1,2.473408729E-1,4.782964649E-1
5.793337621E1,-3.279182017E-1,1.087672114E-1,-3.252525926E-1,4.744996336E-1
5.813376221E1,3.166340292E-1,-7.499570027E-3,-8.673816174E-2,3.283852321E-1
5.833414721E1,-1.631139964E-1,2.775892988E-2,-1.484969705E-1,2.223242773E-1
5.853453321E1,1.345344037E-1,-1.313280761E-1,-1.863728911E-1,2.647289631E-1
5.873491833E1,-5.141688585E-1,3.724253178E-1,3.033544719E-1,7.036292831E-1
5.893530333E1,2.101356536E-1,-1.351496298E-2,-5.953865647E-1,6.315257783E-1
5.913568933E1,2.471060865E-2,-6.709499657E-2,7.977724075E-2,1.071296452E-1
5.933607433E1,-2.817792892E-1,-1.018447280E-1,-1.867663115E-1,3.530631269E-1
5.953645933E1,4.290511012E-1,1.420705765E-1,7.614752650E-1,8.855018212E-1
5.973684396E1,-7.088726759E-2,-7.875718921E-2,2.686804533E-1,2.888198150E-1
5.993722896E1,-1.060011834E-1,5.678238720E-2,-5.003944784E-2,1.302475977E-1
6.013761396E1,-1.497286931E-2,-1.197099239E-1,-3.055264354E-1,3.284829606E-1
6.033799896E1,-6.499660760E-2,1.218337640E-1,-2.270933092E-1,2.657807294E-1
6.053838296E1,4.509578049E-1,-4.355834424E-1,8.135800064E-2,6.322301807E-1
6.073876800E1,7.695924044E-1,4.280689955E-1,2.741620243E-1,9.223233431E-1
6.093915300E1,-1.947055608E-1,6.608966738E-2,9.143237770E-2,2.250288409E-1
6.113953700E1,1.606290936E-1,7.039706409E-2,-3.012102246E-1,3.485470582E-1
6.133992200E1,-2.367988676E-1,1.158103719E-1,8.245564997E-2,2.761968142E-1
6.154030600E1,-4.095252752E-1,-1.415327340E-1,-2.425173819E-1,4.965452108E-1
6.174069096E1,-7.011243701E-1,-2.316493839E-1,2.179786563E-1,7.699035745E-1
6.194107496E1,3.135255724E-2,3.871607780E-1,4.465784729E-1,5.918688903E-1
6.214145896E1,-6.705349088E-1,-8.102045208E-2,-4.236045778E-1,7.972591899E-1
6.234184396E1,1.098035932E0,9.054934978E-2,6.832089275E-2,1.103879448E0
6.254222796E1,-7.353542000E-2,-7.043261081E-2,-2.967561185E-1,3.137393895E-1
6.274261250E1,2.750165164E-1,-2.389028519E-1,2.867190242E-1,4.635908280E-1
6.294299650E1,-1.707714647E-1,2.099760436E-2,3.245805800E-1,3.673640503E-1
6.314338050E1,-2.972397022E-2,6.788549572E-2,1.185199618E-1,1.397817452E-1
6.334376450E1,-4.538840652E-1,-7.380939722E-1,-5.918860435E-1,1.049343864E0
6.354414850E1,-1.784424782E-1,6.944010407E-2,-5.498423576E-1,5.822287045E-1
6.374453138E1,-5.168014765E-1,-1.520589292E-1,5.953004584E-3,5.387403106E-1
6.394491437E1,1.072608709E0,-5.082200170E-1,2.714801133E-1,1.217570729E0
6.414529838E1,-1.180357561E-1,5.725451112E-1,3.794289529E-1,6.969265918E-1
6.434568238E1,-8.235708624E-2,-1.864269674E-1,-7.677923441E-1,7.943820161E-1
6.454606538E1,-7.735312730E-2,1.152696535E-1,-1.168938577E-1,1.814794018E-1
6.474644946E1,-2.987248898E-1,-7.800538838E-2,-6.968299299E-2,3.165076933E-1
6.494683246E1,6.657708883E-1,3.837331235E-1,7.229867578E-1,1.055088545E0
6.514721546E1,9.730271995E-2,-2.792732120E-1,2.426291257E-1,3.825313567E-1
6.534759946E1,-3.640196919E-1,-1.111283153E-1,-3.699953109E-2,3.823987499E-1
6.554798246E1,-3.599759638E-1,-8.519518971E-1,-6.799047589E-1,1.147900349E0
6.574836658E1,-5.263119191E-2,-3.212653697E-1,-3.222709894E-1,4.580830391E-1
6.594874958E1,-6.952469051E-2,2.885023654E-1,4.142895341E-2,2.996392090E-1
6.614913258E1,4.116562605E-1,6.756882370E-2,-8.913626894E-3,4.172599615E-1
6.634951558E1,-3.690960705E-1,2.377576679E-1,1.187320054E-1,4.548163443E-1
6.654989858E1,4.906915724E-1,-1.406987756E-1,-6.514044404E-1,8.275881281E-1
6.675028138E1,1.692657173E-1,-1.423239801E-2,2.374216914E-1,2.919289361E-1
6.695066437E1,-5.310029984E-1,-2.126940712E-2,-1.592570096E-1,5.547786649E-1
6.715104738E1,6.640543342E-1,3.455350399E-1,7.283387184E-1,1.044432818E0
6.735142938E1,-3.009653687E-1,2.700301111E-1,4.213554561E-1,5.839835909E-1
6.755181237E1,2.530106604E-1,-2.442247272E-1,1.110243425E-1,3.687634964E-1
6.775219396E1,1.054660976E-1,-2.957305908E-1,-4.383301437E-1,5.391780735E-1
6.795257696E1,-4.040942341E-2,1.549333613E-2,-2.711152434E-1,2.745477011E-1
6.815295896E1,-2.071940154E-2,2.245568931E-1,2.711919844E-1,3.527041030E-1
6.835334196E1,9.766154885E-1,-6.016840935E-1,4.364626408E-1,1.227314629E0
6.855372396E1,-4.401125014E-1,4.119139910E-1,2.887213826E-1,6.683802710E-1
6.875410583E1,2.350531146E-2,3.309434652E-1,-5.411306024E-1,6.347427870E-1
6.895448783E1,2.127759010E-1,7.348740101E-2,3.189721107E-1,3.904064415E-1
6.915486983E1,-4.673738480E-1,-3.179239929E-1,-2.786570191E-1,6.302092615E-1
6.935525183E1,-3.375301063E-1,2.099981606E-1,3.862330914E-1,5.542578831E-1
6.955563383E1,2.069442868E-1,3.357070088E-1,3.915641308E-1,5.557405889E-1
6.975601571E1,6.088554859E-2,-2.668629587E-1,-1.918304861E-1,3.342481475E-1
6.995639771E1,6.345109344E-1,-1.161968410E-1,-2.873869240E-1,7.061848737E-1
7.015677971E1,-1.385933757E-1,2.212113440E-1,-4.368831217E-1,5.089297049E-1
7.035716171E1,-2.138301171E-2,-1.728179008E-1,3.058223128E-1,3.519240643E-1
7.055754271E1,7.434999943E-1,6.205747128E-1,7.863823771E-1,1.247518520E0
7.075792533E1,-8.011168242E-2,-1.657552719E-1,4.016573429E-1,4.418385598E-1
7.095830733E1,-3.652403355E-1,1.023864746E0,1.509322971E-1,1.097488077E0
7.115868833E1,6.942375749E-2,-4.040936232E-1,-5.164938569E-1,6.594522110E-1
7.135906933E1,-2.229880914E-2,-5.667478442E-1,-3.179062009E-1,6.502035899E-1
7.155945133E1,-7.348583937E-1,-5.125843883E-1,-3.816371858E-1,9.738616716E-1
7.175983221E1,-2.416092008E-1,4.525395632E-1,4.385496080E-1,6.749020824E-1
7.196021321E1,4.878071547E-1,-2.329811305E-1,-3.355953097E-1,6.362862871E-1
7.216059421E1,2.943074703E-1,2.851861119E-1,-9.914318472E-2,4.216365456E-1
7.236097521E1,-1.717108786E-1,-4.190902039E-2,-2.024367899E-1,2.687408523E-1
7.256135621E1,5.687849522E-1,6.320331246E-2,3.609141111E-1,6.765870056E-1
7.276173671E1,-4.948440194E-1,2.302271128E-1,7.052991986E-1,8.918083239E-1
7.296211771E1,2.095993310E-1,1.360043883E-1,2.974624634E-1,3.884752120E-1
7.316249871E1,-5.110254288E-1,-2.882972658E-1,-8.329728842E-1,1.018874933E0
7.336287971E1,-2.293800861E-1,-5.486560985E-2,-4.537553191E-1,5.113896251E-1
7.356326071E1,-3.586660028E-1,1.009655520E-1,-2.415049523E-1,4.440270107E-1
7.376364121E1,1.265976578E-1,-6.528363228E-1,-2.503769994E-1,7.105708080E-1
7.396402221E1,-4.626308084E-1,6.237233058E-2,3.690596819E-1,5.950820290E-1
7.416440221E1,1.932926774E-1,2.999891043E-1,-7.310890406E-2,3.642807072E-1
7.436478321E1,6.788239628E-2,-1.883451939E-1,-2.738911100E-2,2.020695306E-1
7.456516321E1,-7.693841308E-2,-4.625136778E-2,-2.042020112E-1,2.230631521E-1
7.476554238E1,-1.213292181E-1,9.722854197E-2,3.359019458E-1,3.701408999E-1
7.496592337E1,4.866039380E-2,-1.952972114E-1,1.821457148E-1,2.714514618E-1
7.516630338E1,8.159558475E-2,2.766179144E-1,1.495522559E-1,3.248710318E-1
7.536668338E1,-1.497195661E-1,-7.332766652E-1,-7.240826488E-1,1.041348308E0
7.556706338E1,-4.921361506E-1,4.717421532E-2,-4.533123672E-1,6.707574074E-1
7.576744400E1,-2.437611669E-1,-7.546281815E-2,3.772656992E-2,2.579485172E-1
7.596782400E1,5.319669843E-1,-1.952781975E-1,5.444808006E-1,7.858637217E-1
7.616820400E1,1.536277216E-2,7.707390934E-2,3.347439468E-1,3.438457680E-1
7.636858400E1,7.267298549E-2,7.439047098E-1,-2.835200131E-1,7.994117699E-1
7.656896300E1,-4.445591867E-1,-4.695178866E-1,-1.075902656E-1,6.554811833E-1
7.676934258E1,-4.839731157E-1,-1.527094245E-1,-2.665261030E-1,5.732244836E-1
7.696972258E1,-1.266623378E0,2.626198530E-1,1.813961118E-1,1.306219169E0
7.717010158E1,1.169070527E-1,4.076006711E-1,5.716604590E-1,7.117592616E-1
7.737048158E1,5.790212154E-1,-1.627433598E-1,-3.338044509E-2,6.023829539E-1
7.757086058E1,2.819526494E-1,-2.967117913E-2,2.377265505E-2,2.845045070E-1
7.777124121E1,5.557753518E-2,-2.405230999E-1,-4.159959257E-1,4.837280581E-1
7.797162021E1,3.368224800E-1,1.041992605E-1,4.066635072E-1,5.382212157E-1
7.817199921E1,5.832217634E-2,9.591870755E-2,7.252584696E-1,7.338948987E-1
7.837237821E1,-8.419594169E-2,5.293089151E-2,4.432076812E-1,4.542286699E-1
7.857275721E1,-5.339789987E-1,1.455257982E-1,-3.745476305E-1,6.682793252E-1
7.877313550E1,1.965882182E-1,1.317680329E-1,-5.680534244E-2,2.433856795E-1
7.897351450E1,-1.044248939E0,5.078359246E-1,-1.969489753E-1,1.177769957E0
7.917389350E1,2.995394468E-1,1.466456987E-2,-1.610182375E-1,3.403906618E-1
7.937427250E1,1.734688282E-1,4.647197425E-1,6.197022796E-1,7.937800632E-1
7.957465150E1,-3.427845538E-1,-6.360628605E-1,-7.440978885E-1,1.037187968E0
7.977503037E1,9.416090846E-1,2.058100849E-1,3.251150623E-2,9.643870889E-1
7.997540938E1,-5.790980458E-1,-1.484964639E-1,-5.362555981E-1,8.031038619E-1
8.017578738E1,1.312617958E-1,5.857343078E-1,6.614191532E-1,8.931907045E-1
8.037616638E1,-1.343490183E-1,-7.262353599E-2,8.511703610E-1,8.647628694E-1
8.057654438E1,5.271860212E-2,-1.802517772E-1,2.130156159E-1,2.839817016E-1
8.077692408E1,-6.182385683E-1,2.137015611E-1,-5.165303946E-1,8.334812134E-1
8.097730208E1,-2.591944933E-1,-6.228096411E-2,-3.264706433E-1,4.214780952E-1
8.117768008E1,-4.469288886E-1,2.752067447E-1,-3.721544445E-1,6.434151959E-1
8.137805908E1,8.938949704E-1,-7.305942774E-1,-1.188487485E-1,1.160577977E0
8.157843708E1,1.446933001E-1,4.317633063E-2,4.995647967E-1,5.218863216E-1
8.177881550E1,5.128812417E-2,3.985689580E-1,3.643031791E-2,4.035032268E-1
8.197919350E1,-6.568246484E-1,-4.027760923E-1,-6.763929129E-1,1.025258295E0
8.217957150E1,-7.641099393E-2,5.849700794E-2,-2.433526963E-1,2.616888892E-1
8.237994950E1,4.029490650E-1,3.543462753E-1,5.093144178E-1,7.398178208E-1
8.258032750E1,2.187101245E-1,1.078597605E-1,7.828729749E-1,8.199743540E-1
8.278070513E1,-1.971622556E-1,2.742686272E-1,4.314564168E-1,5.479515257E-1
8.298108313E1,-4.166952372E-1,2.211534679E-1,-4.562362731E-1,6.562738101E-1
8.318146113E1,-3.752940595E-1,3.293158486E-3,-5.461344719E-1,6.626608012E-1
8.338183912E1,-2.145019323E-1,2.218220234E-1,-2.732100785E-1,4.121405537E-1
8.358221713E1,1.133989573E0,-5.257907510E-1,3.620028496E-1,1.301320225E0
8.378259438E1,-3.146596625E-2,2.954806387E-1,2.276142836E-1,3.743089325E-1
8.398297238E1,6.014247984E-2,5.815359578E-2,-5.440437198E-1,5.504384867E-1
8.418335038E1,-1.459449530E-1,-8.145868778E-2,3.003679812E-1,3.437388125E-1
8.438372737E1,-5.850133300E-1,-1.960114576E-2,-4.524411559E-1,7.398160587E-1
8.458410538E1,2.857032716E-1,4.756491184E-1,5.724456310E-1,7.972217030E-1
8.478448188E1,3.847451881E-2,-3.769513965E-2,3.140064776E-1,3.185926555E-1
8.498485988E1,-1.637327224E-1,3.668995500E-1,1.436876804E-1,4.266964186E-1
8.518523687E1,-3.174386919E-1,-5.280008316E-1,-5.424793363E-1,8.208751620E-1
8.538561387E1,-1.796071380E-1,1.032428592E-1,-3.789169490E-1,4.318516716E-1
8.558599088E1,-1.722554862E-1,-5.091582239E-2,3.340137005E-2,1.827020116E-1
8.578636833E1,1.145916700E0,-1.070356369E0,9.095515311E-2,1.570687964E0
8.598674633E1,-4.002904296E-1,2.009022087E-1,4.600605071E-1,6.420668156E-1
8.618712333E1,6.884434074E-2,3.012257218E-1,-4.489457905E-1,5.450034877E-1
8.638750033E1,3.368388489E-2,-1.572935730E-1,4.692172706E-1,4.960249180E-1
8.658787633E1,-8.331097364E-1,-1.739029586E-1,-5.623896122E-1,1.020096146E0
8.678825271E1,-8.420331478E-1,1.590373665E-1,6.210576296E-1,1.058312471E0
8.698862971E1,3.936956227E-1,-2.867695391E-1,3.421189189E-1,5.952128750E-1
8.718900671E1,-2.710548639E-1,-2.316870540E-1,1.536368113E-2,3.569112957E-1
8.738938371E1,6.472838670E-2,-9.006102085E-1,-1.081997514E0,1.409257653E0
8.758975971E1,-1.534117460E-1,2.120737582E-1,-2.276203036E-1,3.468738177E-1
8.779013721E1,2.608565688E-1,2.770558894E-1,2.475261837E-1,4.539552037E-1
8.799051421E1,1.104516029E0,-5.435116887E-1,4.305429757E-1,1.304119576E0
8.819089021E1,-3.384220898E-1,1.369013041E-1,4.259352684E-1,5.609744476E-1
8.839126721E1,3.283081949E-1,5.604996681E-1,-3.059294522E-1,7.180104306E-1
8.859164321E1,1.205622852E-1,4.810102284E-2,4.587786198E-1,4.767879979E-1
8.879202058E1,-4.468366504E-1,-1.951700747E-1,-2.836549580E-1,5.641050304E-1
8.899239658E1,-1.362215877E-1,8.138022386E-3,2.310151607E-1,2.683105529E-1
8.919277258E1,7.149136811E-2,3.031391185E-3,3.805119991E-1,3.871815937E-1
8.939314958E1,-1.547275186E-1,-1.610610783E-1,-2.970996797E-1,3.716846723E-1
8.959352558E1,2.760037184E-1,-1.460124552E-1,-3.367248178E-1,4.592181318E-1
8.979390096E1,5.664828792E-2,5.215022713E-2,-1.192677468E-1,1.419629182E-1
8.999427696E1,2.221168578E-1,2.942258418E-1,1.163771972E-1,3.865855617E-1
9.019465296E1,-2.387735546E-1,6.154998541E-1,8.527184725E-1,1.078416281E0
9.039502896E1,-4.135263339E-2,-2.253124677E-2,3.558235466E-1,3.589263068E-1
9.059540496E1,-4.157441854E-1,7.627587318E-1,-2.954643071E-1,9.175746659E-1
9.079578071E1,3.500068188E-1,-3.868147135E-1,-1.946509331E-1,5.567938411E-1
9.099615671E1,-6.188204288E-1,-3.805442750E-1,-4.410611391E-1,8.498750478E-1
9.119653271E1,-5.423178896E-2,-4.574912190E-1,-5.567000508E-1,7.226024142E-1
9.139690871E1,-1.615581512E-1,5.428845882E-1,6.502287388E-1,8.623352742E-1
9.159728471E1,4.974118769E-1,-2.830835879E-1,-5.017830729E-1,7.611446284E-1
9.179765988E1,3.597694039E-1,1.919448227E-1,-1.136317924E-1,4.233072444E-1
9.199803588E1,-4.623373747E-1,3.525480279E-4,-3.277346492E-1,5.667150718E-1
9.219841188E1,8.007501960E-1,3.342517316E-1,6.188204288E-1,1.065769121E0
9.239878687E1,-2.589689493E-1,-9.407912195E-2,7.738996148E-1,8.214842736E-1
9.259916288E1,1.707436740E-1,-3.181186914E-1,4.096242189E-1,5.460264690E-1
9.279953825E1,-6.690363884E-1,-2.115902603E-1,-1.029106140E0,1.245567973E0
9.299991425E1,-3.133442402E-1,2.943368256E-1,-2.487643808E-1,4.966915511E-1
9.320028925E1,-3.584137559E-1,1.218330115E-1,-2.424442470E-1,4.495363345E-1
9.340066425E1,1.444249630E0,-7.445723414E-1,-1.449984219E-2,1.624947756E0
9.360104025E1,-2.464286238E-1,1.339591742E-1,1.913109124E-1,3.395172929E-1
9.380141496E1,1.947519183E-1,3.723667562E-1,-5.597620606E-1,6.999420514E-1
9.400178996E1,8.325719833E-2,6.568291187E-1,9.423444867E-1,1.151681112E0
9.420216496E1,-1.446170360E-1,-1.033557504E-1,-2.274855971E-1,2.886974111E-1
9.440253996E1,-2.489438653E-1,5.428649187E-1,5.971122980E-1,8.445226252E-1
9.460291496E1,-1.143722981E-1,-2.094348669E-1,5.514882207E-1,6.009020250E-1
9.480328958E1,-2.231256217E-1,-1.005471349E-1,-1.945780404E-2,2.455063655E-1
9.500366458E1,-2.498405278E-1,-9.147052765E-1,-7.858087420E-1,1.231503720E0
9.520403958E1,-1.919737309E-1,9.974853694E-2,-3.557955623E-1,4.164062513E-1
9.540441458E1,4.247516990E-1,7.456438988E-2,1.907766312E-1,4.715607883E-1
9.560478958E1,3.603831530E-1,1.984744221E-1,5.126106143E-1,6.572957896E-1
9.580516350E1,9.235643595E-2,-3.027588427E-1,1.816219538E-1,3.649372031E-1
9.600553850E1,7.622213960E-1,1.496391147E-1,-2.251558751E-1,8.087450088E-1
9.620591350E1,-2.372645028E-2,-1.499255449E-1,7.102304697E-2,1.675854607E-1
9.640628750E1,-2.741877437E-1,-1.261460930E-1,-2.853833139E-1,4.153737972E-1
9.660666250E1,-8.067304492E-1,3.174245358E-1,-6.611979604E-1,1.090300462E0
9.680703738E1,-5.547077656E-1,-2.649435401E-1,2.046178281E-1,6.478921517E-1
9.700741237E1,2.289290130E-1,-1.305676550E-1,-3.658381701E-1,4.508813283E-1
9.720778638E1,6.098141074E-1,4.004299641E-1,4.173840582E-2,7.307253220E-1
9.740816037E1,7.955091447E-2,1.335679442E-1,-3.971815109E-1,4.265230314E-1
9.760853537E1,1.294354051E-1,2.069141269E-1,3.198335767E-1,4.023188993E-1
9.780890846E1,-2.765627503E-1,1.170682609E-1,6.238245964E-1,6.923503879E-1
9.800928246E1,3.821240738E-2,-2.758813798E-1,2.876693606E-1,4.004052758E-1
9.820965646E1,-3.712563813E-1,1.370258778E-1,-3.265608549E-1,5.130783408E-1
9.841003046E1,-8.103262633E-2,5.789101496E-2,-1.895063967E-1,2.140801965E-1
9.861040446E1,-6.744388342E-1,-1.427086592E-1,-4.651714265E-1,8.316357126E-1
9.881077921E1,8.977234364E-1,-1.056120634E0,-4.334225357E-1,1.452292414E0
9.901115321E1,-3.769699335E-1,3.424594700E-1,3.991396129E-1,6.470681958E-1
9.921152721E1,4.215588868E-1,-1.812862307E-1,-4.191398323E-1,6.214939995E-1
9.941190121E1,1.926560104E-1,2.133969963E-1,3.915823698E-1,4.857894283E-1
9.961227521E1,-4.751714468E-1,-3.238263428E-1,-4.126276970E-1,7.077520897E-1
9.981264825E1,4.658434093E-1,-1.631378755E-2,2.648745477E-1,5.361294132E-1
1.000130223E2,3.168670535E-1,-1.563035697E-1,4.051648676E-1,5.375817198E-1
1.002133963E2,-2.000524662E-2,3.538027108E-1,3.051730096E-1,4.676613453E-1
1.004137693E2,-8.091711402E-1,-7.543749809E-1,-7.239865661E-1,1.322118033E0
1.006141433E2,-1.999112964E-1,6.310324371E-2,-1.972764581E-1,2.878620272E-1
1.008145156E2,-1.591580808E-1,-5.600106344E-2,-1.996896118E-1,2.614256201E-1
1.010148896E2,1.701910734E0,4.234421626E-2,3.565141261E-1,1.739366408E0
1.012152626E2,-1.651837975E-1,3.704728484E-1,5.773763061E-1,7.056197398E-1
1.014156366E2,5.941827893E-1,3.765003383E-1,-9.876411408E-2,7.103238994E-1
1.016160096E2,1.359906942E-1,-5.539556742E-1,-2.236291170E-1,6.126747423E-1
1.018163826E2,-7.524027228E-1,1.970931441E-1,-7.098479271E-1,1.053014551E0
1.020167556E2,-1.839561313E-1,-8.773721755E-3,5.008574724E-1,5.336431805E-1
1.022171296E2,4.136593044E-1,1.068336889E-2,4.620224535E-1,6.202361664E-1
1.024175026E2,-3.016042411E-1,1.682210565E-1,7.402756717E-3,3.454247283E-1
1.026178756E2,6.985006928E-1,1.686739773E-1,-6.034800410E-2,7.211074886E-1
1.028182495E2,-2.355776280E-1,-1.196943223E-3,-3.591976762E-1,4.295593347E-1
1.030186225E2,3.109024167E-1,-1.649074405E-1,3.227237761E-1,4.774991228E-1
1.032189955E2,1.321403533E-1,3.337000012E-1,7.217965722E-1,8.061061068E-1
1.034193675E2,8.051645011E-2,-2.767522931E-1,4.326709211E-1,5.198835028E-1
1.036197405E2,-2.546095056E-3,8.731299043E-1,-2.094599791E-2,8.733848219E-1
1.038201126E2,-2.693281472E-1,-2.900252044E-1,-2.595368922E-1,4.732987095E-1
1.040204856E2,-5.125662088E-1,-2.552204430E-1,-2.870506644E-1,6.405151653E-1
1.042208576E2,-1.887871325E-1,7.923411131E-1,5.753506422E-1,9.972328627E-1
1.044212306E2,-2.373972386E-1,1.078800671E-2,2.245002389E-1,3.269161777E-1
1.046216036E2,-4.988871515E-1,6.930644810E-2,-4.297487810E-2,5.055082727E-1
1.048219762E2,1.976777911E-1,9.114266932E-2,-5.091910362E-1,5.537680080E-1
1.050223492E2,-1.397868544E-1,-2.135204673E-1,-3.871477246E-1,4.636967924E-1
1.052227212E2,4.267207086E-1,1.364383996E-1,-2.030773014E-1,4.918804635E-1
1.054230932E2,5.696002245E-1,8.970852494E-1,7.470092177E-1,1.298933844E0
1.056234662E2,2.100954652E-1,-1.244280785E-1,6.842046380E-1,7.264698465E-1
1.058238377E2,-2.216054359E-3,8.559093475E-1,-2.351543158E-1,8.876278918E-1
1.060242097E2,6.907330453E-2,-3.675199747E-1,-1.632433832E-1,4.080324195E-1
1.062245817E2,-7.452948093E-1,-5.611680076E-2,-5.997710228E-1,9.582999154E-1
1.064249547E2,-4.837526381E-2,1.347834319E-1,3.664423525E-1,3.934294567E-1
1.066253267E2,-1.860775352E-1,2.101798654E-1,4.363420308E-1,5.188398527E-1
1.068256986E2,3.319431245E-1,3.336845548E-4,1.288525015E-1,3.560748747E-1
1.070260706E2,7.331932336E-2,-1.330216974E-2,-3.066299260E-1,3.155544048E-1
1.072264426E2,-1.814290285E-1,2.137057483E-1,-4.122574925E-1,4.985407500E-1
1.074268136E2,2.677288949E-1,-1.409622282E-1,-5.116255954E-2,3.068659617E-1
1.076271856E2,2.680068314E-1,6.572623849E-1,7.698389888E-1,1.047126340E0
1.078275585E2,-1.340766251E-1,6.306823343E-3,3.997771442E-1,4.217085278E-1
1.080279305E2,-3.443262279E-1,2.619741559E-1,-3.465444148E-1,5.543320674E-1
1.082283025E2,1.198057905E-1,-1.761741042E-1,-2.688642442E-1,3.430433271E-1
1.084286735E2,-5.787582994E-1,-1.965435594E-1,-4.416789711E-1,7.541026809E-1
1.086290455E2,-2.416591197E-1,-3.876511157E-1,-4.418084323E-1,6.355054748E-1
1.088294161E2,-3.116542473E-2,2.928867638E-1,2.863411605E-1,4.107860761E-1
1.090297881E2,4.654710591E-1,1.078713387E-1,-2.582253814E-1,5.431205024E-1
1.092301591E2,4.732046425E-1,-1.262473911E-1,-1.809148192E-1,5.221026808E-1
1.094305311E2,-3.511588275E-1,-2.177032381E-1,-3.659299612E-1,5.519166228E-1
1.096309021E2,2.617400885E-1,4.125767946E-1,6.227731705E-1,7.915642155E-1
1.098312730E2,-7.507968694E-2,-3.959817588E-1,1.706960648E-1,4.376935678E-1
1.100316450E2,-1.483850628E-1,5.159761384E-2,1.425267458E-1,2.121186316E-1
1.102320160E2,-3.766300976E-1,-3.832919300E-1,-7.310597301E-1,9.073099046E-1
1.104323870E2,7.163998485E-2,9.347698092E-2,4.320438951E-3,1.178511756E-1
1.106327580E2,-3.280216753E-1,2.449719608E-1,-3.754394874E-2,4.111192396E-1
1.108331292E2,9.626595378E-1,-4.279026017E-2,2.756540775E-1,1.002262222E0
1.110335002E2,-3.728462756E-1,2.540269196E-1,2.584865391E-1,5.199608754E-1
1.112338712E2,-5.626568571E-2,3.881424069E-1,-3.708565235E-1,5.397730231E-1
1.114342422E2,2.202096581E-1,-2.142388076E-1,2.150225341E-1,3.750003339E-1
1.116346132E2,-3.761533499E-1,-1.120208129E-1,-5.275435373E-2,3.960088724E-1
1.118349840E2,-1.919262707E-1,5.681948066E-1,4.887754917E-1,7.736811442E-1
1.120353550E2,1.560823321E-1,1.022314094E-2,3.838262260E-1,4.144740990E-1
1.122357250E2,-2.948891521E-1,1.808053255E-1,1.071229577E-1,3.621125596E-1
1.124360960E2,4.944641292E-1,5.663165078E-2,-2.459724694E-1,5.551615753E-1
1.126364670E2,-3.737746477E-1,1.513647102E-2,-4.613050520E-1,5.939183034E-1
1.128368372E2,-2.587034106E-1,9.150896668E-1,3.083992004E-1,9.997132688E-1
1.130372082E2,7.512868047E-1,1.947821230E-1,6.884763837E-1,1.037483334E0
1.132375782E2,-4.288082421E-1,3.081920147E-1,3.738570809E-1,6.470146392E-1
1.134379492E2,2.359108031E-1,1.734462678E-1,4.035357386E-2,2.955772754E-1
1.136383192E2,-1.878834516E-1,-3.913802803E-1,-3.223828673E-1,5.407489513E-1
1.138386893E2,-3.004886806E-1,1.666620970E-1,-1.361215115E-1,3.695927050E-1
1.140390603E2,4.514172971E-1,-5.098644495E-1,-2.712886631E-1,7.330326540E-1
1.142394303E2,-2.056137919E-1,1.379918009E-1,4.154479802E-1,4.836484186E-1
1.144398003E2,2.419334501E-1,-6.389631629E-1,-5.613511205E-1,8.842628559E-1
1.146401703E2,1.030297279E0,2.619722486E-1,5.540467501E-1,1.198795122E0
1.148405398E2,1.831927150E-1,-3.157455027E-1,-2.420170307E-1,4.379806348E-1
1.150409098E2,-3.142378330E-1,2.784349918E-1,2.599193454E-1,4.937909745E-1
1.152412798E2,-1.133460402E-1,4.224047363E-1,7.691706419E-1,8.848144226E-1
1.154416498E2,-2.882834077E-1,3.477628827E-1,-5.494792759E-2,4.550446357E-1
1.156420198E2,-9.403709769E-1,-5.284425616E-1,-6.525509953E-1,1.260702945E0
1.158423904E2,-2.293143272E-1,1.442155540E-1,-6.965153217E-1,7.473398023E-1
1.160427604E2,-8.653606772E-1,-2.128089964E-1,-3.285635710E-1,9.497846023E-1
1.162431304E2,9.767388105E-1,-1.289271861E-1,1.228073910E-1,9.928356252E-1
1.164434994E2,-1.566830575E-1,3.148749173E-1,5.244769454E-1,6.314838559E-1
1.166438694E2,3.625083566E-1,1.529857516E-1,-3.750402629E-1,5.435734979E-1
1.168442390E2,3.241092339E-2,-1.010378674E-1,4.368671477E-1,4.495687081E-1
1.170446080E2,-5.979746580E-1,-9.536653757E-2,-4.049928188E-1,7.284831168E-1
1.172449780E2,3.555955291E-1,9.558897465E-2,4.997104704E-1,6.207221493E-1
1.174453470E2,-3.335230350E-1,-1.203019544E-1,2.991863787E-1,4.639209678E-1
1.176457170E2,1.746107787E-1,2.477448247E-2,-8.219688386E-2,1.945739621E-1
1.178460859E2,-1.088866830E0,-7.041816711E-1,-9.164483547E-1,1.587885508E0
1.180464559E2,-1.301883720E-2,-1.174781471E-2,-4.494614601E-1,4.498034075E-1
1.182468249E2,-3.065951765E-1,-9.001217782E-2,-2.600591481E-1,4.119873237E-1
1.184471939E2,1.042127132E0,-3.158018291E-1,1.622270793E-2,1.089046800E0
1.186475629E2,-3.526678085E-1,7.076177597E-1,6.831439137E-1,1.044884244E0
1.188479336E2,5.525701642E-1,-2.764074504E-1,-1.068785638E-1,6.270230398E-1
1.190483026E2,2.629657984E-1,1.001814246E0,3.389143944E-1,1.089791614E0
1.192486716E2,-5.625615716E-1,-4.895158857E-2,-2.168405801E-1,6.048897561E-1
1.194490406E2,1.746656150E-1,1.610637009E-1,4.104315937E-1,4.742401142E-1
1.196494096E2,-5.981119815E-3,-4.294657111E-1,3.314058185E-1,5.425001266E-1
1.198497775E2,2.350457711E-3,-1.132430062E-1,1.447091997E-2,1.141880494E-1
1.200501465E2,9.818583727E-1,3.592012525E-1,-1.283959895E-1,1.053355084E0
1.202505145E2,3.339685872E-2,2.724263817E-2,-2.489981800E-1,2.527006236E-1
1.204508835E2,2.074727863E-1,5.187690854E-1,-3.876521289E-1,6.800297744E-1
1.206512525E2,9.242535830E-1,5.357242227E-1,1.102247000E0,1.534989764E0
1.208516215E2,1.677198559E-1,6.378424168E-1,2.399665862E-1,7.018239531E-1
1.210519895E2,-2.772896290E-1,-3.428497314E-1,-3.455035090E-1,5.601858187E-1
1.212523585E2,-4.460538030E-1,-1.655631363E-1,-2.462516874E-1,5.357378471E-1
1.214527265E2,-7.182913423E-1,-5.156068802E-1,-4.277334213E-1,9.822162628E-1
1.216530955E2,4.152274132E-1,-1.006841063E-1,-1.432528198E-1,4.506356225E-1
1.218534641E2,-1.257998347E-1,6.744401902E-2,3.259118497E-1,3.557988588E-1
1.220538331E2,5.098766088E-2,-4.916734397E-1,-7.379359007E-1,8.881958717E-1
1.222542011E2,2.037367970E-1,-1.187002882E-1,1.143543348E-1,2.620598305E-1
1.224545691E2,-5.820741057E-1,-2.608807087E-1,-5.646731257E-1,8.518947985E-1
1.226549381E2,-5.093530566E-2,-1.229322627E-1,3.445369601E-1,3.693405792E-1
1.228553058E2,-5.589594133E-3,-1.298118383E-1,6.156379580E-1,6.291998508E-1
1.230556738E2,-1.106831282E-1,5.142499879E-2,6.277006865E-1,6.394555787E-1
1.232560418E2,-4.623255134E-1,-1.088626504E0,-1.035797715E0,1.572173480E0
1.234564098E2,3.207385838E-1,-2.842720449E-1,-4.161727130E-1,5.973973232E-1
1.236567778E2,-4.238570333E-1,1.373856813E-1,-1.584651470E-1,4.729067698E-1
1.238571457E2,1.059167504E0,-9.668760300E-1,-1.483564675E-1,1.441767908E0
1.240575137E2,-1.574855149E-1,3.281617463E-1,4.504767656E-1,5.791555365E-1
1.242578817E2,2.988769412E-1,2.166368216E-1,-2.061943114E-1,4.228179662E-1
1.244582497E2,2.816818357E-1,-8.451413512E-1,1.785086095E-1,9.085559332E-1
1.246586177E2,-4.756232202E-1,1.790620685E-1,-8.707674593E-2,5.156190761E-1
1.248589851E2,-6.164182425E-1,-1.742119938E-1,-4.106442630E-1,7.608876259E-1
1.250593531E2,1.812196076E-1,-1.853508353E-1,9.787582606E-2,2.770833009E-1
1.252597211E2,-1.110508665E-1,-9.100837111E-1,2.480543852E-1,9.497976807E-1
1.254600881E2,1.685641259E-1,-6.729394197E-2,-2.417779714E-1,3.023225539E-1
1.256604561E2,-1.529053506E-2,1.700252295E-2,-3.739139736E-1,3.746125277E-1
1.258608231E2,1.425145268E-1,7.560025156E-2,-3.899721429E-2,1.659715973E-1
1.260611911E2,1.290534902E-2,2.230329663E-1,7.135497332E-1,7.477054726E-1
1.262615581E2,3.318784013E-2,4.858609289E-2,2.973859608E-1,3.031508714E-1
1.264619261E2,-3.296988904E-1,1.120784208E-1,-1.381864548E-1,3.746444008E-1
1.266622931E2,-3.049852699E-2,-5.454956368E-2,-5.113641173E-2,8.075114643E-2
1.268626602E2,-1.187390536E-1,9.634163231E-2,-8.779437281E-3,1.531592357E-1
1.270630282E2,2.421581447E-1,-1.827083677E-1,-1.250399947E-1,3.281126559E-1
1.272633952E2,-3.700690567E-1,2.191707492E-1,1.558396518E-1,4.574635736E-1
1.274637622E2,5.522602201E-1,-1.191446066E0,-7.280782461E-1,1.501543543E0
1.276641292E2,7.376213372E-2,7.188942432E-1,3.890704811E-1,8.207469918E-1
1.278644961E2,-4.676005542E-1,-2.305194736E-1,-2.387028635E-1,5.733834346E-1
1.280648631E2,2.290727347E-1,2.919249535E-1,3.095913231E-1,4.832610926E-1
1.282652301E2,-2.152261883E-2,-2.785108984E-1,5.377681851E-1,6.059918849E-1
1.284655971E2,5.313531309E-2,-5.403878540E-2,2.370887250E-1,2.489068407E-1
1.286659641E2,-2.827807963E-1,-2.135068029E-1,-6.570663452E-1,7.465161188E-1
1.288663301E2,-4.035805166E-1,3.670217097E-1,-4.707093537E-1,7.205202734E-1
1.290666971E2,-8.801127076E-1,-3.062805235E-1,-5.212233067E-1,1.067745228E0
1.292670641E2,1.082877040E0,-4.840784371E-1,-3.392587230E-2,1.186636247E0
1.294674311E2,4.724306986E-2,6.122106686E-2,3.890159130E-1,3.966274162E-1
1.296677971E2,7.028545141E-1,-2.200052328E-2,-8.211586475E-1,1.081105922E0
1.298681638E2,4.278374910E-1,4.185185954E-2,5.477077961E-1,6.962616798E-1
1.300685298E2,-5.848063827E-1,3.237793744E-1,-2.385636419E-1,7.097493922E-1
1.302688968E2,3.464126289E-1,-1.020260930E0,3.588684201E-1,1.135658671E0
1.304692628E2,1.291141957E-1,1.259735692E-2,5.681928992E-1,5.828141553E-1
1.306696298E2,5.114727020E-1,-9.179461002E-1,-2.008709870E-2,1.051015157E0
1.308699961E2,1.065568179E-1,-6.546814740E-2,-2.774095237E-1,3.042966934E-1
1.310703631E2,-1.242990121E-1,-8.429092704E-4,-4.317333698E-1,4.492712516E-1
1.312707291E2,2.058425099E-1,-1.792743355E-1,-3.655413538E-2,2.754026707E-1
1.314710951E2,1.399533510E0,2.406280935E-1,5.927428007E-1,1.538811214E0
1.316714621E2,9.405887127E-2,6.000585482E-2,7.965306044E-1,8.043063953E-1
1.318718282E2,-1.726632565E-1,5.647262335E-1,-3.798105419E-1,7.021284545E-1
1.320721942E2,1.644227356E-1,2.406733185E-1,2.687891722E-1,3.964922462E-1
1.322725602E2,-8.685957640E-2,-1.341116428E-1,-1.302548200E-1,2.061476095E-1
1.324729262E2,3.097407520E-1,5.606154799E-1,4.289040864E-1,7.708357575E-1
1.326732922E2,-1.511034369E-1,3.257230520E-1,3.856300116E-1,5.269139029E-1
1.328736583E2,-3.967072070E-1,1.077540666E-1,-4.620327801E-2,4.136693001E-1
1.330740243E2,3.915107548E-1,-1.872736216E-1,-5.257071257E-1,6.817037938E-1
1.332743903E2,-5.694901347E-1,1.934839338E-1,-4.338124394E-1,7.415849775E-1
1.334747563E2,4.992552996E-1,7.275307178E-2,1.652963310E-1,5.309159450E-1
1.336751223E2,9.169913083E-2,3.740532994E-1,3.992987275E-1,5.547648828E-1
1.338754865E2,-3.373652929E-3,-3.418727815E-1,4.389290810E-1,5.563695879E-1
1.340758525E2,5.009027123E-1,3.425575793E-1,1.487298161E-1,6.247957911E-1
1.342762185E2,-7.554299384E-2,-5.035015941E-1,-1.675009131E-1,5.359824205E-1
1.344765835E2,-1.475471444E-2,-7.268844247E-1,-9.135886282E-2,7.327517385E-1
1.346769495E2,-4.192750454E-1,3.935757875E-1,-1.405072212E-1,5.919761342E-1
1.348773158E2,-4.734201431E-1,2.569918334E-1,2.015698105E-1,5.751537385E-1
1.350776808E2,-3.528952301E-1,7.436104864E-2,-9.804762900E-2,3.737351288E-1
1.352780458E2,9.855757952E-1,-1.354615241E-1,-3.104009628E-1,1.042141176E0
1.354784118E2,-4.747698307E-1,2.470088452E-1,-2.883946896E-1,6.079401769E-1
1.356787768E2,3.207325935E-1,1.380573958E-1,2.344054431E-1,4.205652777E-1
1.358791435E2,7.243894786E-2,7.087917626E-2,7.496002316E-1,7.564203633E-1
1.360795085E2,-1.403426379E-1,1.227181852E-1,2.633002400E-1,3.226186997E-1
1.362798735E2,-1.243212104E0,8.729901314E-1,-1.166550040E0,1.915339944E0
1.364802385E2,-2.371547967E-1,-3.611020744E-1,-9.874686599E-2,4.431569127E-1
1.366806035E2,-4.495689273E-1,1.782733202E-1,-3.600179255E-1,6.029150054E-1
1.368809678E2,4.214234948E-1,-3.847802877E-1,-1.810929626E-1,5.987055144E-1
1.370813338E2,-1.869386435E-1,1.574673802E-1,4.467544258E-1,5.092460596E-1
1.372816978E2,3.225907683E-1,2.040953375E-2,-6.123209000E-1,6.924003448E-1
1.374820628E2,7.267922759E-1,-2.546246946E-1,-3.489031270E-2,7.708943386E-1
1.376824278E2,-2.948160768E-1,-4.501204789E-1,-6.449298859E-1,8.399163782E-1
1.378827935E2,7.037947774E-1,1.191555932E-1,4.204877913E-1,8.284534548E-1
1.380831585E2,-1.753186882E-1,5.693048611E-2,3.868242502E-1,4.284982185E-1
1.382835235E2,-2.901735008E-1,-8.797264099E-2,3.003610075E-1,4.267980564E-1
1.384838885E2,-7.742028236E-1,-4.522439837E-2,-3.338354826E-1,8.443230352E-1
1.386842525E2,-3.323403597E-1,1.511282921E-1,-4.266756177E-1,5.615531659E-1
1.388846171E2,-5.425660610E-1,-3.697676361E-1,-3.698151112E-1,7.535709998E-1
1.390849821E2,5.429891348E-1,-6.377707124E-1,-3.679609001E-1,9.148682452E-1
1.392853461E2,-3.961173594E-1,3.174589872E-1,3.610520661E-1,6.229348003E-1
1.394857111E2,3.509672880E-1,-1.788196117E-1,-5.066387057E-1,6.417454861E-1
1.396860751E2,1.251025051E-1,1.298632659E-2,8.694294095E-2,1.528998248E-1
1.398864401E2,-5.213528872E-1,-1.904721260E-1,-4.617962539E-1,7.220417189E-1
1.400868041E2,6.024619937E-1,2.748611271E-1,3.805530071E-1,7.637602270E-1
1.402871681E2,1.563995928E-1,1.711778343E-2,6.635133028E-1,6.819118375E-1
1.404875331E2,-2.114233077E-1,9.372918308E-2,3.148790300E-1,3.906837318E-1
1.406878971E2,-8.896729350E-1,9.624081105E-2,-4.124915004E-1,9.853575305E-1
1.408882610E2,-1.368231922E-1,-3.060144484E-1,-5.354603529E-1,6.317303365E-1
1.410886250E2,-1.656898260E-1,9.977681935E-2,-1.756755561E-1,2.612861135E-1
1.412889900E2,7.286990285E-1,-6.855322719E-1,-3.972972557E-2,1.001266808E0
1.414893540E2,-3.207059205E-1,4.206906259E-1,3.591382205E-1,6.393849792E-1
1.416897180E2,4.372001886E-1,5.384827852E-1,-3.831754625E-1,7.924210686E-1
1.418900813E2,8.946512826E-3,-2.729934156E-1,1.712253392E-1,3.223717758E-1
1.420904453E2,-6.532163024E-1,6.994917244E-2,-3.539238870E-1,7.462215102E-1
1.422908093E2,-5.454714298E-1,7.573584318E-1,4.186944067E-1,1.022954486E0
1.424911733E2,2.954521477E-1,-1.844976395E-1,2.015686631E-1,4.024441285E-1
1.426915363E2,-2.503615022E-1,1.388356239E-1,8.204105496E-2,2.978035375E-1
1.428919013E2,3.663944900E-1,-6.834847853E-3,-1.752534658E-1,4.062085852E-1
1.430922653E2,9.186693281E-2,-2.487730533E-1,-3.440254033E-1,4.343743126E-1
1.432926293E2,2.593308501E-2,4.763228819E-2,-1.395078599E-1,1.496789991E-1
1.434929923E2,7.667444944E-1,-1.097496375E-1,6.769195795E-1,1.028670122E0
1.436933563E2,-1.800477803E-1,4.109525587E-3,4.731590152E-1,5.062741797E-1
1.438937203E2,5.093771815E-1,7.952883840E-1,-1.884971112E-1,9.630575723E-1
1.440940833E2,-4.331879020E-1,-9.407547116E-2,-2.240570337E-1,4.966925679E-1
1.442944473E2,-5.056294799E-1,-2.297440171E-1,-3.599456251E-1,6.618189612E-1
1.444948103E2,-3.391161859E-1,6.155340075E-1,3.100362122E-1,7.681174096E-1
1.446951733E2,9.406389296E-2,7.349943742E-3,2.892732620E-1,3.042713555E-1
1.448955365E2,-2.901427448E-1,2.526830733E-1,2.945925668E-2,3.858748446E-1
1.450958995E2,-3.530096412E-1,-5.785828829E-1,-3.981506228E-1,7.860648050E-1
1.452962635E2,-5.806948245E-2,1.505469978E-1,-2.105922997E-1,2.653028082E-1
1.454966265E2,1.415123940E-1,8.688234724E-3,-1.423367262E-1,2.009004397E-1
1.456969895E2,1.341258526E0,1.252320111E-1,7.063002586E-1,1.521025163E0
1.458973532E2,-2.200452089E-1,2.196662128E-1,4.824806154E-1,5.739866577E-1
1.460977162E2,2.612284720E-1,3.827219307E-1,-2.008185834E-1,5.050193009E-1
1.462980792E2,7.279601693E-1,-4.870763719E-1,2.749673426E-1,9.180285615E-1
1.464984422E2,-7.692044377E-1,1.355689615E-1,-3.691900373E-1,8.639188006E-1
1.466988052E2,-2.403426319E-1,2.542244792E-1,-1.044399664E-1,3.651059752E-1
1.468991683E2,4.651720822E-1,-2.386494875E-1,3.666155040E-1,6.385495844E-1
1.470995313E2,-2.195544392E-1,3.571292460E-1,9.993757308E-2,4.309674798E-1
1.472998943E2,-7.194133475E-3,-5.142467022E-1,-6.876646876E-1,8.587107481E-1
1.475002573E2,-5.170687437E-1,2.428794652E-2,-4.021995366E-1,6.555260920E-1
1.477006203E2,5.208170786E-2,1.692849211E-2,2.766739130E-1,2.820417208E-1
1.479009827E2,9.349275231E-1,-7.859772444E-2,-6.443121936E-3,9.382476164E-1
1.481013447E2,-1.581910998E-1,1.068228483E-1,7.227221131E-1,7.475043798E-1
1.483017077E2,7.289400697E-2,-1.339699514E-2,-3.867656589E-1,3.938028575E-1
1.485020707E2,9.639855027E-1,-9.516158700E-2,6.548302174E-1,1.169241802E0
1.487024327E2,-6.493454576E-1,7.005468011E-2,-4.332847595E-1,7.837683741E-1
1.489027964E2,8.463294059E-2,4.998652935E-1,5.159006715E-1,7.233128985E-1
1.491031584E2,4.542907178E-1,1.931445897E-1,9.418565631E-1,1.063380776E0
1.493035214E2,-6.046884060E-1,-9.403244406E-2,-7.863706350E-2,6.169878091E-1
1.495038834E2,-2.969034612E-1,-6.825515628E-1,-6.924410462E-1,1.016613448E0
1.497042454E2,-3.126889467E-1,1.217603013E-1,-3.468648493E-1,4.826128594E-1
1.499046078E2,-1.353666335E-1,-3.674858212E-1,-3.076668382E-1,4.980249367E-1
1.501049698E2,1.355422378E0,1.956218295E-2,5.910443068E-1,1.478812318E0
1.503053318E2,-1.773492098E-1,1.637405157E-1,7.385454774E-1,7.769897817E-1
1.505056937E2,5.283489823E-1,-5.404725671E-1,-2.411689311E-1,7.933635335E-1
1.507060568E2,2.087668329E-1,-1.187729836E-1,-1.461295336E-1,2.811484533E-1
1.509064187E2,-9.340775013E-1,-5.742262006E-1,-5.146895647E-1,1.211256313E0
1.511067807E2,-8.568696976E-1,6.597122550E-1,3.563493788E-1,1.138609159E0
1.513071427E2,5.214053988E-1,4.358850121E-1,1.080258369E0,1.276251338E0
1.515075047E2,-5.270831585E-1,1.055419222E-1,-3.222467005E-2,5.385110794E-1
1.517078667E2,3.536280096E-1,-3.497082889E-1,-9.023936987E-1,1.030370343E0
1.519082293E2,-2.233040035E-1,-2.237056196E-1,-8.464938402E-1,9.035821511E-1
1.521085903E2,-8.745446056E-2,5.447791219E-1,3.057489097E-1,6.308050175E-1
1.523089523E2,1.293055415E0,-3.503396809E-1,6.872860789E-1,1.505686672E0
1.525093143E2,-2.244116515E-1,1.279696226E-1,5.576224923E-1,6.145564722E-1
1.527096763E2,9.398588538E-2,4.976779819E-1,-2.560210228E-1,5.675063739E-1
1.529100372E2,-3.367621303E-1,-2.111235112E-1,-6.892746780E-3,3.975290924E-1
1.531103992E2,-9.363675117E-1,-1.602841318E-1,-5.946429968E-1,1.120747703E0
1.533107612E2,-9.173746109E-1,2.870053053E-1,2.736867964E-1,9.994261776E-1
1.535111222E2,2.499726117E-1,1.323482245E-1,4.953136742E-1,5.703840767E-1
1.537114842E2,7.240598649E-2,3.966987506E-2,-2.247332186E-1,2.394187657E-1
1.539118444E2,7.355341315E-1,-2.924078703E-1,-4.385535717E-1,9.048989206E-1
1.541122064E2,9.583037347E-2,-5.852156132E-2,-5.953190327E-1,6.058159657E-1
1.543125674E2,4.649056792E-1,6.346293688E-1,4.683269262E-1,9.155445572E-1
1.545129284E2,-2.600723505E-1,3.392608762E-1,8.350207806E-1,9.380806328E-1
1.547132904E2,5.564493686E-2,-5.005957484E-1,-1.942338422E-2,5.040533009E-1
1.549136524E2,-8.859114051E-1,-3.854408264E-1,-1.001519203E0,1.391561843E0
1.551140134E2,2.987117767E-1,-5.565827489E-1,-1.187692404E0,1.345223523E0
1.553143744E2,-1.106266379E0,2.280554026E-1,-5.579344034E-1,1.259811640E0
1.555147364E2,6.885117888E-1,-4.840054363E-2,-2.934573889E-1,7.500055567E-1
1.557150974E2,-1.929704249E-1,8.529330790E-2,1.735439152E-1,2.731849625E-1
1.559154579E2,2.323304117E-1,-5.194617510E-1,-6.032374501E-1,8.292848438E-1
1.561158189E2,4.804788530E-1,1.569856107E-1,-8.203167915E-1,9.635476369E-1
1.563161799E2,-2.526737750E-1,-1.958673298E-1,-7.990747690E-1,8.606558743E-1
1.565165409E2,2.660164535E-1,1.094437912E-1,1.077527031E-1,3.071698911E-1
1.567169019E2,-3.878601193E-1,-1.638338566E-1,4.041926861E-1,5.836512077E-1
1.569172615E2,3.194085062E-1,-5.533533096E-1,2.644189596E-1,6.914760049E-1
1.571176225E2,2.982584238E-1,5.420985222E-1,-1.222575605E-1,6.306947013E-1
1.573179835E2,-2.721883953E-1,-2.561781108E-1,-4.328275919E-1,5.718858901E-1
1.575183445E2,-1.339628845E-1,-2.231234908E-1,-4.456206262E-1,5.160502777E-1
1.577187045E2,-7.475613356E-1,-8.231762648E-1,-4.324384332E-1,1.193092667E0
1.579190665E2,1.131635718E-2,7.485429645E-1,6.226153374E-1,9.737014367E-1
1.581194275E2,2.566404045E-1,-1.290871352E-1,-5.292693377E-1,6.022074538E-1
1.583197875E2,8.236578703E-1,5.035308003E-1,2.571808100E-1,9.990483087E-1
1.585201485E2,4.050154239E-2,-2.831801772E-1,-1.921046078E-1,3.445802781E-1
1.587205085E2,2.344163656E-1,2.131003141E-1,3.452306390E-1,4.685583960E-1
1.589208688E2,6.648816168E-2,-6.835864484E-2,8.701338172E-1,8.753436124E-1
1.591212288E2,2.469059378E-1,-1.255621612E-1,2.011241317E-1,3.423146430E-1
1.593215887E2,-3.386420012E-1,-4.233370721E-1,-7.337665558E-1,9.123080839E-1
1.595219498E2,1.126788855E-1,-1.708354652E-1,-3.727512658E-1,4.252349862E-1
1.597223098E2,-4.266600907E-1,1.988199949E-1,-4.703176320E-1,6.654073176E-1
1.599226701E2,6.019968390E-1,3.908779621E-1,5.570122600E-1,9.085419271E-1
1.601230301E2,1.122503653E-1,3.356329799E-1,8.062309623E-1,8.804873686E-1
1.603233911E2,-1.302594692E-1,6.031181216E-1,-3.670497797E-3,6.170352263E-1
1.605237511E2,2.309015244E-1,-1.325808465E-1,-3.626375496E-1,4.498879719E-1
1.607241111E2,-6.604334116E-1,-1.266337633E-1,-6.344923377E-1,9.245479586E-1
1.609244713E2,-2.226926684E-1,4.692502916E-1,4.012514371E-3,5.194265694E-1
1.611248313E2,4.390042126E-1,9.738894552E-2,7.095829248E-1,8.400697784E-1
1.613251913E2,4.918765277E-2,5.174550042E-2,1.790018827E-1,1.927140265E-1
1.615255513E2,-3.843275011E-1,2.260247432E-2,-5.872356296E-1,7.021852922E-1
1.617259113E2,1.679807156E-1,1.969440281E-1,-4.654950500E-1,5.326256777E-1
1.619262700E2,1.363647133E-1,-8.858738584E-4,-1.094360463E-2,1.368060024E-1
1.621266300E2,8.827324957E-2,2.256596684E-1,5.524032116E-1,6.032112074E-1
1.623269900E2,9.998734295E-2,-3.221074343E-1,1.959831566E-1,3.900769996E-1
1.625273500E2,-2.398594171E-1,2.711941004E-1,1.308150440E-1,3.849563037E-1
1.627277090E2,2.588813007E-1,-3.842586651E-2,-3.712431528E-3,2.617438771E-1
1.629280686E2,-8.924245238E-1,-1.648947597E-1,-4.738821387E-1,1.023804715E0
1.631284286E2,-1.308760792E-1,-5.713370442E-1,-4.249254465E-1,7.239587014E-1
1.633287876E2,3.158815205E-2,2.200307101E-1,4.587263763E-1,5.097462242E-1
1.635291476E2,1.817603223E-2,-3.405146003E-1,-5.343937874E-1,6.339221412E-1
1.637295066E2,4.660055637E-1,2.244124413E-1,2.314177901E-1,5.666359702E-1
1.639298676E2,-4.822019041E-1,-1.960579604E-1,-6.389364004E-1,8.241341662E-1
1.641302266E2,5.023211241E-1,3.535427153E-1,4.291163087E-1,7.493061922E-1
1.643305856E2,1.512811929E-1,2.238702327E-1,7.664183974E-1,8.126506262E-1
1.645309456E2,-2.199107111E-1,1.102778241E-1,4.056068063E-1,4.743825467E-1
1.647313046E2,-1.981475055E-1,-1.754173338E-1,-7.101261616E-1,7.578343093E-1
1.649316623E2,9.086510539E-2,-3.373741359E-2,-6.766998172E-1,6.836061169E-1
1.651320213E2,7.566848397E-2,1.021532640E-1,9.270009585E-3,1.274634924E-1
1.653323813E2,1.236515284E0,-1.724503040E-1,3.187950552E-1,1.288541595E0
1.655327403E2,2.224799991E-1,1.871775687E-1,6.757571101E-1,7.356496884E-1
1.657330993E2,-1.400167495E-1,7.468965650E-1,-1.040656269E-1,7.669998850E-1
1.659334593E2,-8.547203988E-2,-3.954942226E-1,-1.027377397E-1,4.174640019E-1
1.661338183E2,-7.886018753E-1,-1.901325434E-1,-5.913469195E-1,1.003859792E0
1.663341773E2,-6.595930457E-1,5.173473358E-1,7.832211256E-2,8.419296913E-1
1.665345363E2,-4.972095788E-2,5.867776647E-2,3.276345730E-1,3.365407365E-1
1.667348953E2,9.441929460E-1,-5.490067601E-1,1.907941699E-1,1.108743053E0
1.669352542E2,6.892461181E-1,5.506650209E-1,2.278933972E-1,9.111682485E-1
1.671356122E2,-1.473563313E-1,7.618752122E-2,-5.328549743E-1,5.580796094E-1
1.673359712E2,4.298241436E-1,1.581844836E-1,1.624858230E-1,4.859760982E-1
1.675363302E2,-1.933525354E-1,2.660629153E-1,3.978743553E-1,5.162157305E-1
1.677366892E2,6.203078851E-2,-1.361170411E-1,3.061920106E-1,3.407773687E-1
1.679370468E2,-1.734574139E-1,-3.512611091E-1,-3.992227912E-1,5.593305626E-1
1.681374058E2,-3.194352686E-1,-4.016100168E-1,-2.865610123E-1,5.877471482E-1
1.683377638E2,-2.217698693E-1,2.061577141E-1,-1.141349971E-1,3.235887446E-1
1.685381228E2,9.979424477E-1,-3.319733739E-1,2.100825906E-1,1.072487830E0
1.687384808E2,-1.545772254E-1,3.196310997E-1,2.793984115E-1,4.517982192E-1
1.689388402E2,5.669997334E-1,2.290413380E-1,-3.013360202E-1,6.817272397E-1
1.691391982E2,6.929571182E-2,-6.479961276E-1,-1.124002412E-1,6.613128543E-1
1.693395572E2,-4.278663695E-1,6.409558654E-2,-2.354793847E-1,4.925732585E-1
1.695399152E2,7.057313621E-2,6.649488807E-1,5.555464029E-1,8.693499797E-1
1.697402732E2,-6.367892623E-1,-4.527149200E-1,1.750259399E-1,8.006781145E-1
1.699406325E2,2.547342181E-1,-3.762423620E-2,2.034113556E-1,3.281482662E-1
1.701409905E2,5.118377209E-1,-3.006832600E-1,-2.248304337E-1,6.347731873E-1
1.703413485E2,-4.473469257E-1,1.402740031E-1,-6.574571133E-1,8.074936060E-1
1.705417065E2,-1.718900166E-2,1.878966950E-2,-1.994128712E-2,3.234452643E-2
1.707420645E2,4.848294854E-1,4.197568297E-1,5.840718150E-1,8.674072349E-1
1.709424223E2,1.234737337E-1,5.435669795E-2,3.283805549E-1,3.550129608E-1
1.711427803E2,-1.030693427E-1,6.368402243E-1,-1.733048409E-1,6.679994974E-1
1.713431383E2,-5.650774110E-3,-1.354889721E-1,1.234481037E-1,1.833810980E-1
1.715434963E2,-6.819323301E-1,-7.402790785E-1,-4.479495883E-1,1.101682191E0
1.717438543E2,-8.012049794E-1,4.519507587E-1,-1.992964298E-1,9.412268453E-1
1.719442118E2,1.458474696E-1,-9.314674884E-2,5.055955052E-1,5.343918189E-1
1.721445698E2,4.983228445E-1,-5.377728939E-1,-4.882442206E-2,7.347851162E-1
1.723449278E2,7.732922435E-1,2.001886070E-1,2.055844478E-2,7.990488232E-1
1.725452848E2,-3.252779543E-1,-3.643015027E-1,-3.306797147E-1,5.898053968E-1
1.727456428E2,3.904136121E-1,1.053738147E-1,3.608785570E-1,5.419960906E-1
1.729460016E2,-1.892075837E-1,-1.668694429E-2,6.824963093E-1,7.084343131E-1
1.731463586E2,5.210252479E-2,-2.839280479E-2,3.487765789E-1,3.537879682E-1
1.733467166E2,-1.329988480E0,3.120721877E-1,-1.039832950E0,1.716831666E0
1.735470746E2,-1.180202141E-1,-8.340330794E-3,-2.288978696E-1,2.576675509E-1
1.737474316E2,1.403914243E-1,3.729164302E-1,-8.962222189E-2,4.084220349E-1
1.739477892E2,6.412001848E-1,4.829150140E-1,4.956873059E-1,9.434248741E-1
1.741481462E2,-1.160806865E-1,4.867213368E-1,4.982866943E-1,7.061600493E-1
1.743485032E2,1.913201362E-1,3.777219951E-1,4.014481604E-1,5.834705867E-1
1.745488612E2,-3.056976199E-1,-2.553027868E-1,-7.270929813E-1,8.290324187E-1
1.747492182E2,-2.617225349E-1,-1.409259737E-1,-7.457511127E-2,3.064641293E-1
1.749495750E2,-5.353616476E-1,-3.278530836E-1,-5.496933460E-1,8.344234613E-1
1.751499330E2,1.263180971E-1,4.410432279E-2,4.312496781E-1,4.515282249E-1
1.753502900E2,-2.064374089E-1,-6.025851145E-2,-2.755887210E-1,3.495663530E-1
1.755506470E2,4.326406717E-1,2.293590456E-1,1.031718254E-1,5.004277652E-1
1.757510040E2,-4.618467391E-1,1.609175466E-2,-4.703450203E-1,6.593828881E-1
1.759513605E2,2.230015546E-1,-1.203722954E-1,4.706080556E-1,5.345008184E-1
1.761517175E2,6.801276654E-2,-9.595941752E-2,5.283824801E-1,5.413150576E-1
1.763520745E2,-7.522125542E-2,-8.441221714E-2,1.347515136E-1,1.759023311E-1
1.765524315E2,-1.844148785E-1,-3.789965510E-1,-6.477325559E-1,7.727902025E-1
1.767527885E2,-9.851425141E-2,7.369694114E-2,-5.356063247E-1,5.495547579E-1
1.769531463E2,-1.276774704E-1,-4.522123933E-1,-2.457028180E-1,5.302522606E-1
1.771535033E2,2.754506469E-1,3.553069830E-1,8.155884147E-1,9.312897364E-1
1.773538603E2,-4.121485949E-1,-2.701436579E-1,1.234617382E-1,5.080225005E-1
1.775542173E2,2.904801443E-2,5.420448184E-1,-1.278828382E-1,5.576830575E-1
1.777545743E2,-4.447769821E-1,-9.570346773E-2,-2.879859209E-1,5.384436908E-1
1.779549295E2,-6.555539966E-1,-5.351900458E-1,-4.636600018E-1,9.649663335E-1
1.781552865E2,-1.170479804E-1,-5.693545341E-1,-3.011780083E-1,6.546548770E-1
1.783556435E2,-1.247399524E-1,2.167208940E-1,2.904575765E-1,3.832670158E-1
1.785559995E2,3.062582612E-1,-8.991909027E-1,-4.446375966E-1,1.048828391E0
1.787563565E2,5.410255492E-2,-1.875194013E-1,1.095950603E-2,1.954756330E-1
1.789567131E2,-4.132055938E-1,-4.662221670E-2,-3.205997646E-1,5.250682840E-1
1.791570701E2,4.627610147E-1,-6.251693517E-2,4.698351622E-1,6.624207149E-1
1.793574261E2,2.990624309E-1,-6.965317298E-3,5.747842193E-1,6.479689436E-1
1.795577831E2,-2.825921774E-1,3.794474006E-1,1.493905634E-1,4.961413195E-1
1.797581391E2,8.245501667E-2,-5.843754411E-1,-6.654420495E-1,8.894417390E-1
1.799584958E2,-4.288074672E-1,4.184399545E-2,-3.615596890E-1,5.624519292E-1
1.801588518E2,-4.583291709E-2,1.938862205E-1,1.025797948E-1,2.240873425E-1
1.803592078E2,1.092380404E0,-2.505286634E-1,3.542345464E-1,1.175390009E0
1.805595648E2,2.892965451E-2,6.044559181E-2,3.907565176E-1,3.964609067E-1
1.807599208E2,-1.948537081E-1,7.441038489E-1,-2.136011422E-1,7.983006661E-1
1.809602771E2,5.034748912E-1,-6.415230036E-1,-1.339872777E-1,8.264328895E-1
1.811606331E2,-8.347833753E-1,1.651157290E-1,-6.079183221E-1,1.045796909E0
1.813609891E2,-2.446668893E-1,-6.358511448E-1,-1.200755686E-1,6.917996149E-1
1.815613451E2,8.732722700E-2,5.914334059E-1,5.824435949E-1,8.346616437E-1
1.817617011E2,3.597088531E-2,-4.784509838E-1,-4.016695023E-1,6.257376747E-1
1.819620572E2,6.588879824E-1,4.713711515E-2,7.096259296E-2,6.643726142E-1
1.821624132E2,-2.587729692E-1,7.533547934E-3,-3.068639636E-1,4.014793844E-1
1.823627692E2,7.301609516E-1,3.517315090E-1,5.941313505E-1,1.004909016E0
1.825631252E2,-4.415398091E-2,3.586643338E-1,4.437817335E-1,5.723040323E-1
1.827634812E2,-8.699525893E-2,-7.544606179E-2,5.428987145E-1,5.549768442E-1
1.829638372E2,-3.026079237E-1,3.623101711E-1,-2.100537866E-1,5.166844384E-1
1.831641932E2,2.040963620E-1,-3.578598201E-1,-3.298884630E-1,5.277739799E-1
1.833645492E2,-7.714957595E-1,6.919167191E-2,-3.268982172E-1,8.407470718E-1
1.835649042E2,9.641401172E-1,-5.164694190E-1,-3.764756024E-2,1.094405850E0
1.837652602E2,-2.973668873E-1,5.556189418E-1,3.986796439E-1,7.457110249E-1
1.839656163E2,5.276730061E-1,-5.344071984E-1,-5.607147813E-1,9.372464569E-1
1.841659713E2,4.224037230E-1,-8.327205479E-2,1.665868014E-1,4.616387145E-1
1.843663273E2,-7.045717239E-1,-3.159174696E-3,-7.339544296E-1,1.017408669E0
1.845666823E2,-2.133458853E-1,4.062284231E-1,4.479927123E-1,6.412764371E-1
1.847670383E2,6.009753942E-1,4.168336838E-2,6.050833464E-1,8.538353376E-1
1.849673931E2,-1.162173524E-1,1.908935308E-1,2.327025235E-1,3.226410971E-1
1.851677491E2,-1.431245357E-1,-3.013755679E-1,-4.318906963E-1,5.457485128E-1
1.853681041E2,-1.244536564E-1,-1.947863400E-1,-6.083694100E-1,6.508024047E-1
1.855684591E2,2.711583078E-1,5.212767124E-1,-3.585453331E-2,5.886779989E-1
1.857688151E2,-1.017528251E-1,-1.333652139E-1,6.174369454E-1,6.398189582E-1
1.859691700E2,1.670307070E-1,-9.789511561E-2,4.388352334E-1,4.796447361E-1
1.861695250E2,-9.344763309E-2,8.695576340E-2,-2.376943082E-1,2.698005727E-1
1.863698810E2,-2.471226603E-1,-1.810878515E-1,-1.405912936E-1,3.370880167E-1
1.865702360E2,-2.205701917E-1,4.196575284E-1,-2.789176702E-1,5.500533769E-1
1.867705910E2,8.776022792E-1,-8.520110846E-1,-3.816133738E-2,1.223750357E0
1.869709461E2,-3.193104863E-1,2.588017471E-2,3.675836027E-1,4.875927348E-1
1.871713011E2,1.202930212E-1,2.204252630E-1,-4.117269516E-1,4.822621592E-1
1.873716561E2,-1.963346824E-2,-8.112078905E-2,-8.277887106E-2,1.175516779E-1
1.875720111E2,-5.132093430E-1,-1.554238945E-1,-5.053430796E-1,7.368256542E-1
1.877723661E2,6.415079236E-1,4.432923496E-1,5.861773491E-1,9.755226332E-1
1.879727211E2,-1.880442798E-1,-2.202070057E-1,3.225135803E-1,4.334360230E-1
1.881730761E2,-1.457788050E-1,3.305236623E-2,3.546541035E-1,3.848680969E-1
1.883734311E2,8.922185749E-2,-4.631487727E-1,-4.541272819E-1,6.547510318E-1
1.885737861E2,-4.498460591E-1,1.279046983E-1,-2.743665278E-1,5.422158982E-1
1.887741401E2,2.133282125E-1,5.570899844E-1,2.209376097E-1,6.361380388E-1
1.889744950E2,6.056736112E-1,1.728943586E-1,4.897746742E-1,7.978798243E-1
1.891748500E2,-8.650714159E-2,3.884674236E-2,6.061053872E-1,6.134788467E-1
1.893752040E2,1.518019587E-1,7.162698507E-1,-8.789042383E-2,7.374354618E-1
1.895755590E2,2.685537040E-1,-2.138883770E-1,-3.449327052E-1,4.866702177E-1
1.897759140E2,-7.756165862E-1,-2.156244218E-1,-3.433948755E-1,8.752114148E-1
1.899762681E2,-7.491469383E-1,-4.682970345E-1,-8.159983903E-3,8.835099507E-1
1.901766231E2,-2.247647196E-1,2.454896569E-1,5.314242840E-2,3.370585536E-1
1.903769771E2,5.614108220E-2,-6.089879274E-1,-4.182028174E-1,7.408857627E-1
1.905773321E2,-9.753150865E-3,4.179261327E-1,2.729490995E-1,4.992580368E-1
1.907776861E2,1.820394993E-1,-5.405109748E-2,-2.413923442E-1,3.071321610E-1
1.909780410E2,-2.470511496E-1,-7.004280686E-1,1.052551270E-1,7.501415810E-1
1.911783950E2,7.672751546E-1,-5.319968462E-1,1.714583933E-1,9.492785618E-1
1.913787490E2,2.095704079E-1,4.071379304E-1,-6.414494514E-1,7.881233717E-1
1.915791040E2,-5.398550034E-1,1.128596738E-1,-4.261606038E-1,6.969889460E-1
1.917794580E2,6.114218384E-3,-2.975931764E-1,3.534507453E-1,4.620892897E-1
1.919798121E2,3.704777062E-1,-3.178308308E-1,3.129305542E-1,5.798238522E-1
1.921801661E2,-3.731970489E-2,6.845476627E-1,5.762338042E-1,8.955689030E-1
1.923805211E2,2.865451574E-1,-5.499918014E-2,-4.997644201E-2,2.960247993E-1
1.925808751E2,2.688443065E-1,2.217419595E-1,-9.803798050E-2,3.620196173E-1
1.927812291E2,-1.136479713E-2,-3.013466299E-1,-3.224647343E-1,4.415002320E-1
1.929815835E2,1.217900887E-1,6.172642708E-1,3.722521067E-1,7.310401060E-1
1.931819375E2,3.070291877E-1,5.942180008E-2,2.873948514E-1,4.247277635E-1
1.933822915E2,-1.085517883E0,1.572808027E-1,1.294147037E-2,1.096929263E0
1.935826455E2,5.407540798E-1,3.073205352E-1,4.546955228E-2,6.236412161E-1
1.937829995E2,-1.756252646E-1,-1.107145548E-1,-5.079434067E-2,2.137335053E-1
1.939833531E2,-5.308027565E-2,4.596891999E-1,3.976162151E-2,4.644487730E-1
1.941837071E2,-1.425107941E-2,-2.027730457E-2,3.516943157E-1,3.525665242E-1
1.943840611E2,-3.731008470E-1,-8.062534332E-1,-3.624837995E-1,9.595016131E-1
1.945844141E2,-2.354693264E-1,-2.815691009E-2,-7.207714021E-2,2.478582849E-1
1.947847681E2,5.378373265E-1,-8.946806788E-1,-2.925488055E-1,1.084115912E0
1.949851223E2,-5.389183760E-1,1.435522586E-1,-3.363274336E-1,6.512729148E-1
1.951854763E2,7.112330943E-2,2.357078716E-2,-1.164305285E-1,1.384564015E-1
1.953858293E2,-6.420384049E-1,6.145077944E-1,1.143004656E0,1.447857999E0
1.955861832E2,7.719987631E-1,8.257439733E-1,2.484005392E-1,1.157384131E0
1.957865373E2,1.871299744E-1,-4.719151258E-1,-4.484971166E-1,6.774003077E-1
1.959868905E2,8.462849259E-1,-1.078672051E0,-2.851288207E-2,1.371329484E0
1.961872445E2,-3.112587929E-1,3.632303178E-1,-1.521128714E-1,5.019528121E-1
1.963875975E2,9.812216759E-1,-2.833713889E-1,-4.499071538E-1,1.116024986E0
1.965879515E2,-2.408982813E-1,2.768656909E-1,-5.642297864E-1,6.730838318E-1
1.967883045E2,2.693865299E-1,-2.031816542E-1,-1.191885471E-1,3.578516409E-1
1.969886578E2,-8.275873065E-1,2.868374884E-1,-1.650866419E-1,8.913080803E-1
1.971890108E2,-7.306325436E-1,-1.271390766E-1,5.535881519E-1,9.254448122E-1
1.973893648E2,7.611589879E-2,7.412087172E-2,6.560377479E-1,6.645848782E-1
1.975897178E2,-6.304720640E-1,1.596440822E-1,1.287050486E0,1.442040294E0
1.977900708E2,2.782635093E-1,-5.126601830E-2,4.715900123E-1,5.499599303E-1
1.979904243E2,8.275227547E-1,7.439675331E-1,-3.829350770E-1,1.176826611E0
1.981907783E2,-5.007438660E-1,-1.844363213E0,2.467481792E-1,1.926993706E0
1.983911313E2,-5.783206224E-1,9.099960327E-2,2.513385713E-1,6.371081129E-1
1.985914843E2,4.068143666E-1,-1.887090206E-1,1.153125688E-1,4.630399679E-1
1.987918373E2,9.258498996E-2,1.228016615E0,1.050452963E-1,1.235973827E0
1.989921896E2,5.801759660E-2,1.755797714E-1,2.555411160E-1,3.154291673E-1
1.991925426E2,-5.992913246E-1,8.313909769E-1,1.307960302E-1,1.033183744E0
1.993928956E2,-3.449662924E-1,-3.042356670E-1,9.441653639E-2,4.695482577E-1
1.995932486E2,3.020189404E-1,9.635537863E-2,2.372384667E-1,3.959569288E-1
1.997936016E2,-2.979044020E-1,-5.762903690E-1,5.686326027E-1,8.626706550E-1
1.999939547E2,2.985161543E-1,-2.664220929E-1,2.582997680E-1,4.762472006E-1
2.001943077E2,1.010092258E0,-8.142090589E-2,-4.782074392E-1,1.120534734E0
2.003946607E2,-6.795492172E-1,-7.344583869E-1,-5.705435276E-1,1.151840344E0
2.005950137E2,-4.939807579E-2,-7.120557874E-2,3.458559886E-2,9.330899198E-2
2.007953657E2,-6.686259806E-2,-2.792644203E-1,-7.537502050E-2,2.968848551E-1
2.009957193E2,-1.619613618E-1,4.057221115E-1,4.906247258E-1,6.569281057E-1
2.011960723E2,1.290298998E-1,8.447133750E-2,-6.132486090E-2,1.659664438E-1
2.013964243E2,-3.904393017E-1,3.699940443E-1,5.229302049E-1,7.501962679E-1
2.015967773E2,-3.871072233E-1,-7.565211505E-2,-1.757466644E-1,4.318126155E-1
2.017971303E2,2.985366620E-3,1.382105350E-1,5.049947500E-1,5.235749822E-1
2.019974820E2,1.289900988E-1,-5.104795694E-1,-3.203067183E-1,6.162988157E-1
2.021978350E2,-3.400011063E-1,-1.185429320E-1,5.740438104E-1,6.776278294E-1
2.023981870E2,2.210756391E-1,-7.330055237E-1,-5.314356089E-1,9.319846256E-1
2.025985400E2,-8.315405995E-2,-3.733124733E-1,-8.128190041E-1,8.983048112E-1
2.027988920E2,1.234936491E-1,-9.984869510E-2,-2.619749606E-1,3.063516333E-1
2.029992444E2,-2.780134976E-1,2.907830775E-1,2.296380550E-1,4.632277402E-1
2.031995964E2,3.260127902E-1,4.613997340E-1,6.017237306E-1,8.253759761E-1
2.033999484E2,5.259597898E-1,3.135803044E-1,-2.692355216E-1,6.689200803E-1
2.036003014E2,5.282531381E-1,-1.279241443E0,-6.181615964E-2,1.385399323E0
2.038006534E2,-2.704323232E-1,-2.819183171E-1,-6.719105840E-1,7.772228842E-1
2.040010063E2,3.027543426E-1,-6.005064845E-1,-2.155823410E-1,7.062180794E-1
2.042013593E2,-6.444303989E-1,-5.823517442E-1,-7.546350956E-1,1.150607761E0
2.044017113E2,-9.708693251E-3,5.793159008E-1,4.377501607E-1,7.261724140E-1
2.046020633E2,-7.234231830E-1,-1.429065168E-1,-3.487293422E-1,8.157055402E-1
2.048024153E2,-3.305916861E-2,2.972102165E-2,-2.673888803E-1,2.710591468E-1
2.050027684E2,-3.705493510E-1,1.726953983E-1,-2.107664198E-2,4.093589463E-1
2.052031204E2,5.596997738E-1,-3.420480713E-2,8.717467189E-1,1.036521176E0
2.054034724E2,-3.742429018E-1,3.909717798E-1,4.713079333E-1,7.176683428E-1
2.056038244E2,5.815268159E-1,3.496038914E-2,-3.677642941E-1,6.889457471E-1
2.058041764E2,-1.083973050E0,-1.208390713E0,-2.361802943E-2,1.623503465E0
2.060045278E2,-5.618887022E-2,7.041227818E-2,-5.323274136E-1,5.398958726E-1
2.062048798E2,8.093678951E-1,-1.268023252E0,-5.816129446E-1,1.612833834E0
2.064052318E2,-5.869651437E-1,1.121743202E0,3.243137002E-1,1.306910581E0
2.066055838E2,1.203749657E0,-1.171861589E-1,2.435078770E-1,1.233710630E0
2.068059358E2,-1.031336263E-1,5.579098463E-1,6.584845185E-1,8.691960668E-1
2.070062883E2,-7.100970149E-1,-2.939735353E-1,2.357730567E-1,8.038949834E-1
2.072066403E2,3.113142252E-1,2.481997758E-1,-1.051915959E-1,4.118069297E-1
2.074069923E2,4.162112474E-1,-8.118580580E-1,-4.881123900E-1,1.034697547E0
2.076073443E2,-3.854280412E-1,1.292704195E-1,3.454983532E-1,5.335116947E-1
2.078076953E2,5.365774632E-1,-5.465454459E-1,-9.210277200E-1,1.197881196E0
2.080080464E2,-3.443222046E-1,8.271228522E-2,-3.860086203E-1,5.238337118E-1
2.082083984E2,-2.184769511E-1,4.864410758E-1,1.395733505E-1,5.512148570E-1
2.084087504E2,-4.682342112E-1,8.092452884E-1,8.413465023E-1,1.257769911E0
2.086091014E2,-1.451693773E-1,-1.632134765E-1,3.856923580E-1,4.432509245E-1
2.088094534E2,1.664761156E-1,5.390804410E-1,1.369290948E-1,5.805786733E-1
2.090098048E2,1.370167851E0,-2.381675690E-1,-4.945383072E-1,1.476025701E0
2.092101568E2,-3.165662587E-1,-1.236983687E-1,-3.558101952E-1,4.920532263E-1
2.094105088E2,1.649656147E-1,-4.067693353E-1,-1.867640316E-1,4.770280387E-1
2.096108598E2,-1.900863796E-1,3.334980905E-1,-4.948540777E-2,3.870434261E-1
2.098112118E2,-1.095356643E-1,1.349036247E-1,1.737193614E-1,2.457141962E-1
2.100115631E2,-4.376141131E-1,8.497360349E-1,6.332487613E-2,9.578974271E-1
2.102119151E2,-2.165194750E-1,-2.925111055E-1,3.834249973E-1,5.286380222E-1
2.104122661E2,2.501846552E-1,-3.566259444E-1,-3.700804710E-1,5.716064913E-1
2.106126171E2,-4.797242880E-1,-5.600631833E-1,-3.331483006E-1,8.091933959E-1
2.108129691E2,1.170238331E-1,5.115445331E-2,-7.258816063E-2,1.469026775E-1
2.110133206E2,7.339357138E-1,-6.602733135E-1,-7.793425322E-1,1.257774727E0
2.112136716E2,-6.816186905E-1,4.913974404E-1,-1.253006607E-1,8.495738575E-1
2.114140236E2,1.191731572E0,7.493309379E-1,-1.997071058E-1,1.421831186E0
2.116143746E2,-4.220225215E-1,-6.120080948E-1,1.095096022E-1,7.514314804E-1
2.118147256E2,-1.116994396E-1,6.552925706E-1,7.041382194E-1,9.683469161E-1
2.120150758E2,3.310661018E-1,-1.717153788E-1,2.918339968E-1,4.735588841E-1
2.122154268E2,6.646687984E-1,-7.126743793E-1,-6.403411925E-2,9.766216007E-1
2.124157778E2,-3.690787852E-1,-4.200741947E-1,-4.933786690E-1,7.457238026E-1
2.126161288E2,1.047142029E0,6.721258909E-2,-3.500284553E-1,1.106139178E0
2.128164798E2,-6.929751635E-1,4.613649845E-1,2.162824944E-2,8.327904942E-1
2.130168306E2,3.209610581E-1,3.385392129E-1,1.656318754E-1,4.950340571E-1
2.132171816E2,-7.698396444E-1,7.483698726E-1,-1.710993946E-1,1.087191587E0
2.134175326E2,7.294354588E-2,-2.987629175E-1,-1.519818753E-1,3.430430471E-1
2.136178836E2,-2.024089098E-1,-5.037701130E-1,-4.351925254E-1,6.958061710E-1
2.138182346E2,-2.370896637E-1,-1.368206620E0,-2.164200693E-2,1.388765366E0
2.140185858E2,-4.627283812E-1,8.719011396E-2,4.305759966E-1,6.380559220E-1
2.142189368E2,2.953057885E-1,-5.665783286E-1,-8.201826811E-1,1.039671170E0
2.144192878E2,9.112843126E-2,-7.218354940E-2,-6.705272794E-1,6.805304462E-1
2.146196378E2,2.679421902E-1,2.660866380E-1,1.466372013E-1,4.050896012E-1
2.148199888E2,7.048687935E-1,1.220882058E0,-3.354901671E-1,1.449119273E0
2.150203401E2,5.693646669E-1,8.216984868E-1,6.927948594E-1,1.216276796E0
2.152206901E2,1.282586902E-1,3.792313039E-1,1.019312218E-1,4.131060971E-1
2.154210411E2,1.011653617E-1,-3.234362900E-1,-1.692460030E-1,3.788003084E-1
2.156213921E2,-2.119119316E-1,-1.303445846E-1,-4.410842806E-2,2.526696082E-1
2.158217421E2,-4.505361989E-2,-4.735696018E-1,3.133206815E-2,4.767386023E-1
2.160220923E2,-1.353718787E-1,5.893192887E-1,1.401522756E-1,6.206975350E-1
2.162224423E2,2.350106239E-1,-2.681639791E-1,8.219350874E-2,3.659203273E-1
2.164227933E2,3.091519475E-1,-1.200035587E-1,-7.104777694E-1,7.840627791E-1
2.166231433E2,-4.497248232E-1,1.765612513E-1,4.027058184E-1,6.289660311E-1
2.168234933E2,9.967285395E-2,-1.442225277E-2,-8.834427595E-2,1.339678703E-1
2.170238448E2,-2.093669921E-1,2.593655884E-1,9.648798704E-1,1.020832117E0
2.172241948E2,-2.877085656E-2,-4.285070896E-1,4.618434012E-1,6.306706076E-1
2.174245448E2,5.552043915E-1,7.097887248E-2,-3.628909886E-1,6.670680522E-1
2.176248958E2,-5.213197470E-1,-1.214398146E-1,-2.979447842E-1,6.126116238E-1
2.178252458E2,-6.932414323E-2,3.466789126E-1,-6.210421324E-1,7.146225826E-1
2.180255959E2,-2.013619840E-1,-4.717293978E-1,-4.826491475E-1,7.042907588E-1
2.182259459E2,-3.113127947E-1,6.169564724E-1,7.557789683E-1,1.024086322E0
2.184262959E2,1.367614716E-1,6.897022724E-1,7.053959966E-1,9.959801387E-1
2.186266459E2,1.960031390E-1,-3.568137884E-1,2.531827986E-2,4.078900899E-1
2.188269969E2,-1.010299623E-1,-2.981188297E-1,-5.049244165E-1,5.950046692E-1
2.190273469E2,5.532159805E-1,-1.000177562E-1,-5.984709412E-2,5.653610770E-1
2.192276969E2,1.337019354E-1,1.992946714E-1,-1.975737326E-2,2.408005967E-1
2.194280459E2,1.812434494E-1,3.360463679E-1,6.101070046E-1,7.197269666E-1
2.196283959E2,6.099032760E-1,-5.516073108E-1,-9.099689722E-1,1.226497518E0
2.198287459E2,-1.993807703E-1,-2.009851336E-1,-8.105664700E-2,2.944790239E-1
2.200290961E2,6.010106206E-1,7.144047320E-2,-2.626921609E-2,6.058115045E-1
2.202294461E2,-4.071086049E-1,-2.188083529E-1,3.518387079E-1,5.808657228E-1
2.204297961E2,7.147604823E-1,-1.759435087E-1,1.091236174E-1,7.441415384E-1
2.206301451E2,1.149099946E0,-1.833510697E-1,-5.883623362E-1,1.303924284E0
2.208304951E2,1.202144399E-1,-3.596491814E-1,-3.036043644E-1,4.857722257E-1
2.210308452E2,-2.344849519E-3,1.484447569E-1,-6.602607965E-1,6.767463806E-1
2.212311952E2,3.035759926E-1,-1.160676122E0,-6.681629419E-1,1.373233105E0
2.214315442E2,-1.544585228E-1,4.755782187E-1,9.011238813E-1,1.030561171E0
2.216318942E2,4.157581031E-1,3.611552715E-1,7.025529742E-1,8.926749756E-1
2.218322432E2,-8.994598985E-1,-4.181641042E-1,-1.815587468E-2,9.920781032E-1
2.220325930E2,-6.245377064E-1,-8.272289485E-2,-7.984001040E-1,1.017021706E0
2.222329420E2,4.246927202E-1,-8.526840210E-1,-6.046093106E-1,1.128266974E0
2.224332920E2,1.452430151E-3,5.434144735E-1,1.256832480E-1,5.577613096E-1
2.226336410E2,3.838790581E-2,5.769227147E-1,-2.472222038E-2,5.787267388E-1
2.228339910E2,-7.113124728E-1,-1.434333920E-1,4.404271841E-1,8.488313592E-1
2.230343400E2,-3.785972893E-1,-8.500918746E-1,-5.413874984E-1,1.076611595E0
2.232346890E2,-6.269607544E-1,-4.040894210E-1,1.594412625E-1,7.627513120E-1
2.234350390E2,-3.802915663E-2,-7.464984655E-1,-6.588140875E-2,7.503642688E-1
2.236353880E2,-1.431995928E-1,-1.301302761E-1,3.189869821E-1,3.730853882E-1
2.238357372E2,1.262238026E0,-4.380492568E-1,-1.183633924E0,1.784970938E0
2.240360872E2,1.014457345E-1,-1.399858892E-1,-9.617269039E-1,9.771417113E-1
2.242364362E2,2.099621743E-1,1.360978484E-1,-3.327032924E-1,4.162910277E-1
2.244367852E2,-5.992689729E-1,3.276813030E-1,3.483756781E-1,7.667228647E-1
2.246371342E2,1.764221340E-1,-1.882690936E-1,4.071118534E-1,4.819855622E-1
2.248374830E2,4.258002639E-1,1.030635834E-1,5.838916078E-2,4.419697513E-1
2.250378320E2,2.047844678E-1,-5.355582833E-1,-2.443732321E-2,5.738959277E-1
2.252381810E2,-3.699522316E-1,8.105535060E-2,-3.296977580E-1,5.021306953E-1
2.254385300E2,5.095280409E-1,-2.491620183E-1,-2.534105778E-1,6.212225501E-1
2.256388790E2,8.095896244E-2,1.002258301E0,7.495847344E-1,1.254174362E0
2.258392280E2,3.329960704E-1,6.711339355E-1,6.833519936E-1,1.014039984E0
2.260395770E2,-1.089463308E-1,1.265132725E-1,-1.700720936E-1,2.383263060E-1
2.262399260E2,-1.609660536E-1,-5.410901904E-1,-1.589789540E-1,5.864835653E-1
2.264402750E2,-1.018133387E-1,1.872532219E-1,-6.538681686E-2,2.229465426E-1
2.266406240E2,-1.091558218E0,4.835443497E-1,9.070878029E-1,1.499374124E0
2.268409727E2,1.215072572E-1,1.955281943E-2,2.480414212E-1,2.768950576E-1
2.270413207E2,-1.095972061E-1,-9.099390507E-1,-4.747618735E-1,1.032181893E0
2.272416697E2,3.280385435E-1,3.061956465E-1,-7.738361955E-1,8.945320103E-1
2.274420187E2,-8.002623916E-3,1.709073335E-1,-2.161225826E-1,2.756489240E-1
2.276423677E2,-3.023734391E-1,1.430506408E-1,1.987168193E-1,3.890778287E-1
2.278427161E2,5.045498013E-1,3.314408064E-1,1.062754393E0,1.222239915E0
2.280430651E2,-1.328930855E-1,5.675832182E-2,4.460190535E-1,4.688444042E-1
2.282434131E2,6.641277671E-2,-1.010872126E0,-3.152192235E-1,1.060960070E0
2.284437621E2,-3.259495497E-1,5.233984441E-2,-3.931082487E-1,5.133387414E-1
2.286441101E2,3.869416416E-1,-8.272634149E-1,-9.442617744E-2,9.181529799E-1
2.288444589E2,-3.127411604E-1,2.624197900E-1,-4.023891315E-2,4.102320681E-1
2.290448069E2,4.413634539E-1,8.624307513E-1,4.513630271E-1,1.068792347E0
2.292451559E2,-2.068078220E-1,7.342892885E-1,-1.037523299E-1,7.698797182E-1
2.294455039E2,1.023218557E-1,-6.076812148E-1,-4.508522749E-1,7.635535310E-1
2.296458519E2,-2.548484206E-1,4.898160696E-1,1.672423780E-1,5.769207160E-1
2.298462006E2,-5.148249269E-1,8.448155224E-2,6.946154833E-1,8.687188887E-1
2.300465486E2,-1.784984767E-1,-3.260786235E-1,7.865948677E-1,8.700117590E-1
2.302468966E2,2.118065953E-1,1.905264556E-1,-5.017230511E-1,5.769648032E-1
2.304472446E2,4.968207479E-1,-1.126993001E-1,-6.713833213E-1,8.427855907E-1
2.306475926E2,2.640860379E-1,2.863791287E-1,-3.539279103E-1,5.263263308E-1
2.308479419E2,-7.653780580E-1,-2.534058988E-1,-1.978612393E-1,8.301609429E-1
2.310482899E2,5.648812652E-1,3.170839846E-1,1.261716127E0,1.418294992E0
2.312486379E2,-1.669033617E-1,2.221763432E-1,4.477496147E-1,5.269713247E-1
2.314489859E2,-3.859787881E-1,-6.420023441E-1,-1.700921655E-1,7.681653335E-1
2.316493339E2,-5.265907645E-1,-1.070203260E-1,-2.919678092E-1,6.115524385E-1
2.318496825E2,1.700680107E-1,-1.786082983E-2,-1.417689472E-1,2.221273777E-1
2.320500305E2,3.656360805E-1,-1.759575158E-1,-5.027643442E-1,6.460826391E-1
2.322503785E2,-5.317906737E-1,8.445482850E-1,3.362224102E-1,1.053142267E0
2.324507265E2,-2.029371858E-1,-2.504655719E-1,-3.858263195E-1,5.027707757E-1
2.326510735E2,2.591662705E-1,-3.564814627E-1,1.728968322E-2,4.410726949E-1
2.328514215E2,3.747082651E-1,-2.496614754E-1,-2.968457527E-2,4.512408561E-1
2.330517695E2,-1.244764090E0,1.135723710E0,1.066875458E0,1.994374395E0
2.332521175E2,1.641764119E-2,-2.856523395E-1,5.354123712E-1,6.070693578E-1
2.334524645E2,6.888625622E-1,-4.259232283E-1,-8.378913403E-1,1.165334340E0
2.336528125E2,-4.668417573E-1,9.306231886E-2,-3.587880135E-1,5.960961836E-1
2.338531598E2,1.939487606E-1,2.148735672E-1,-1.015911847E-1,3.067695234E-1
2.340535068E2,-1.053276807E-1,-1.908664256E-1,3.967958037E-3,2.180359086E-1
2.342538548E2,-2.524751723E-1,5.664126277E-1,1.383056521E0,1.515721716E0
2.344542028E2,4.377877712E-1,1.461290717E-1,7.759725302E-2,4.680097989E-1
2.346545498E2,-2.278753519E-1,-3.205112815E-1,-1.349274814E-1,4.157644559E-1
2.348548985E2,6.239816546E-2,-5.812202096E-1,-6.517237425E-1,8.754737572E-1
2.350552455E2,1.935593188E-1,-5.212628245E-1,-4.260193408E-1,7.004802787E-1
2.352555935E2,3.413557112E-1,1.791706830E-1,-1.887362599E-1,4.292402952E-1
2.354559405E2,6.275227666E-1,1.197060198E-1,3.110093772E-1,7.105217706E-1
2.356562875E2,-9.401250631E-2,-1.378016770E-1,-7.005257607E-1,7.201138763E-1
2.358566343E2,-1.628140807E-1,3.956879377E-1,1.321371049E-1,4.478142287E-1
2.360569813E2,4.394257069E-2,6.708468199E-1,-1.210879441E-2,6.723935069E-1
2.362573283E2,2.666187882E-1,4.113123938E-2,8.191599250E-1,8.624386006E-1
2.364576763E2,-2.199656367E-1,-1.691068709E-1,7.140332460E-1,7.660453587E-1
2.366580233E2,3.107859492E-1,-2.446396947E-1,-8.084566593E-1,9.000214756E-1
2.368583714E2,6.836468354E-3,-3.292717040E-1,-1.004343748E0,1.056964028E0
2.370587184E2,-3.378571197E-2,4.304021299E-1,-1.211151015E-2,4.318960019E-1
2.372590654E2,-1.715513766E-1,-6.481865644E-1,1.924203523E-2,6.707801078E-1
2.374594124E2,-2.508328259E-1,2.958131135E-1,9.300051928E-1,1.007636920E0
2.376597594E2,1.380965948E0,-1.778476536E-1,9.412147999E-1,1.680649290E0
2.378601061E2,-6.328200698E-1,3.198132217E-1,2.838452160E-1,7.637472384E-1
2.380604531E2,1.396001130E-1,-5.503881574E-1,-5.161556005E-1,7.673538423E-1
2.382608001E2,-7.005554438E-2,7.198172063E-2,2.167598717E-2,1.027569746E-1
2.384611471E2,-1.479195654E-1,1.906715482E-1,-6.019061804E-1,6.484804447E-1
2.386614941E2,4.227789044E-1,4.939081967E-1,2.479591966E-1,6.958240237E-1
2.388618414E2,1.269679703E-2,-4.558908641E-1,-3.657107055E-1,5.845870412E-1
2.390621884E2,1.648452133E-1,-4.380631745E-1,1.477362663E-1,4.908149280E-1
2.392625354E2,2.095485628E-1,6.277092099E-1,-6.195071712E-2,6.646558085E-1
2.394628824E2,-6.310421824E-1,3.014832139E-1,8.857607841E-1,1.128573671E0
2.396632284E2,-8.005145937E-2,4.346557707E-2,4.131481946E-1,4.230708253E-1
2.398635748E2,6.368199587E-1,3.028617501E-1,-5.733358264E-1,9.088337963E-1
2.400639218E2,-4.139248133E-1,2.166214585E-1,-3.269124627E-1,5.702020393E-1
2.402642688E2,1.746879667E-1,5.970173478E-1,1.487308294E-1,6.395830352E-1
2.404646148E2,2.683911622E-1,-1.021721244E0,-6.771968305E-2,1.058552819E0
2.406649618E2,-7.718751431E-1,4.116101861E-1,7.224147916E-1,1.134503113E0
2.408653076E2,4.353234768E-1,1.867863983E-1,1.324857026E-1,4.918822516E-1
2.410656546E2,-7.200442553E-1,-5.684940815E-1,8.178447187E-2,9.210526315E-1
2.412660016E2,-4.229450822E-1,-1.199000776E-1,-2.238411307E-1,4.933187843E-1
2.414663476E2,-3.239173815E-2,-6.456334889E-2,2.312321365E-1,2.422518352E-1
2.416666936E2,-4.043871164E-1,-3.719136715E-1,-1.667674631E-1,5.741603484E-1
2.418670408E2,2.844692171E-1,2.026027888E-1,2.352345288E-1,4.210770820E-1
2.420673868E2,2.091957182E-1,1.060260907E-1,-6.210036278E-1,6.638146474E-1
2.422677338E2,-2.201926261E-1,2.770718932E-1,1.876750290E-1,4.005939879E-1
2.424680798E2,-1.460959017E-1,5.421790481E-1,2.127351165E-1,6.004651218E-1
2.426684258E2,-9.619441032E-1,6.303400993E-1,1.084065199E0,1.580462734E0
2.428687727E2,1.811145097E-1,-7.208689302E-2,4.893210530E-1,5.267201142E-1
2.430691187E2,6.052476764E-1,3.015556633E-1,-5.532138348E-1,8.736739179E-1
2.432694647E2,-3.737288415E-1,1.384503860E-2,-1.867954284E-1,4.180400270E-1
2.434698107E2,4.615823925E-1,3.005509973E-1,-2.203399390E-1,5.932443811E-1
2.436701577E2,-1.274919361E-1,-3.298483789E-1,7.050468028E-2,3.605898734E-1
2.438705038E2,-1.406633705E-1,1.391733736E-1,5.004916787E-1,5.381889372E-1
2.440708498E2,6.350635290E-1,7.673861086E-2,2.754545398E-2,6.402759189E-1
2.442711958E2,-8.808876574E-2,-3.906530738E-1,-2.049601525E-1,4.498645561E-1
2.444715418E2,-2.251174003E-1,-2.801726758E-1,-5.236825943E-1,6.351519753E-1
2.446718878E2,3.583268523E-1,-3.536007106E-1,1.396736410E-2,5.036136246E-1
2.448722338E2,-9.883585572E-2,2.268394232E-1,3.531532586E-1,4.312097799E-1
2.450725798E2,3.975872099E-1,2.049407661E-1,2.185917646E-1,4.978540616E-1
2.452729258E2,-3.979414701E-1,6.478481293E-1,1.300382661E-3,7.603067166E-1
2.454732718E2,-2.312368155E-1,-4.679712653E-1,2.741176821E-2,5.227035250E-1
2.456736178E2,-1.743515134E-1,8.734553456E-1,1.289603859E-1,8.999741508E-1
2.458739627E2,5.856097341E-1,-8.811436892E-1,-2.946616709E-1,1.098261564E0
2.460743087E2,-3.782958388E-1,-1.319943070E-1,3.731711805E-1,5.475280529E-1
2.462746547E2,9.391298890E-1,-4.304064810E-1,-8.095595241E-1,1.312479070E0
2.464750007E2,-2.355144471E-1,-4.361564294E-2,-1.691845357E-1,2.932452663E-1
2.466753467E2,7.772678882E-2,4.438851774E-1,-2.296717763E-1,5.057910925E-1
2.468756918E2,-3.556317985E-1,3.812175989E-1,8.225058317E-1,9.738155252E-1
2.470760378E2,2.406436354E-1,4.246691763E-1,5.294863582E-1,7.201451743E-1
2.472763838E2,2.776382864E-1,-5.011570454E-1,-2.038966268E-1,6.081243595E-1
2.474767288E2,-3.149942756E-1,-3.203495443E-1,4.380029440E-2,4.514019162E-1
2.476770748E2,-1.410528719E-1,2.568260133E-1,-2.828744352E-1,4.072756559E-1
2.478774198E2,2.683728933E-1,-5.384711623E-1,-9.327675216E-3,6.017160527E-1
2.480777658E2,1.274326146E-1,4.642278850E-1,7.154247724E-3,4.814538231E-1
2.482781108E2,4.817614257E-1,2.863945365E-1,1.555910558E-1,5.816566672E-1
2.484784568E2,-1.295425057E0,1.233938098E0,7.457615733E-1,1.938269752E0
2.486788018E2,-5.484571457E-1,-4.396538734E-1,-3.481191695E-1,7.844027825E-1
2.488791479E2,3.173717856E-1,-1.188110635E-1,1.850047261E-1,3.860928228E-1
2.490794929E2,6.048195958E-1,-5.580670834E-1,-7.316874266E-1,1.101186680E0
2.492798379E2,-9.500236064E-2,8.228561282E-1,4.783188999E-1,9.565075150E-1
2.494801839E2,1.297057986E0,-7.729207277E-1,-1.052640319E0,1.840602486E0
2.496805289E2,7.920387387E-2,-8.383891732E-2,-1.911796778E-1,2.232753612E-1
2.498808734E2,-2.156344801E-2,7.896226645E-2,1.294656396E-1,1.531710601E-1
2.500812184E2,-4.066061080E-1,2.320619673E-1,6.403926015E-1,7.932742071E-1
2.502815644E2,-9.543765336E-2,2.424415499E-1,6.637569666E-1,7.130635045E-1
2.504819094E2,1.948376149E-1,2.142686397E-1,-9.860152379E-3,2.897757214E-1
2.506822544E2,1.901397668E-2,-8.055585027E-1,-4.723683596E-1,9.340331363E-1
2.508826003E2,-1.584497541E-1,3.192416579E-2,-3.536542356E-1,3.888403211E-1
2.510829453E2,5.780929327E-1,-8.395107388E-1,-3.309571147E-1,1.071682010E0
2.512832903E2,-5.331116915E-1,1.667437851E-1,4.630265534E-1,7.255378382E-1
2.514836353E2,2.882527113E-1,3.485746980E-1,5.148234963E-1,6.853007938E-1
2.516839803E2,5.866777897E-2,-3.021083176E-1,-5.207369328E-1,6.048787457E-1
2.518843248E2,-3.654142320E-1,-3.921699226E-1,-1.347655952E-1,5.527083994E-1
2.520846698E2,1.055488661E-1,1.731912196E-1,4.606977105E-3,2.028718460E-1
2.522850148E2,-6.247498989E-1,9.389105439E-2,1.004208684E0,1.186407623E0
2.524853598E2,6.673163921E-2,8.807963878E-2,4.943661392E-1,5.065659029E-1
2.526857048E2,4.664033949E-1,-3.083242774E-1,-7.241122723E-1,9.148412811E-1
2.528860498E2,2.671170831E-1,5.779443383E-1,-1.409819163E-2,6.368437432E-1
2.530863948E2,4.559364915E-1,7.768151760E-1,-4.032705352E-2,9.016352773E-1
2.532867398E2,-1.794224739E0,5.856509209E-1,8.131623268E-1,2.055106417E0
2.534870838E2,1.117703319E-2,3.331875503E-1,6.545885801E-1,7.345917771E-1
2.536874288E2,1.857829541E-1,-1.990437955E-1,1.457998604E-1,3.088548815E-1
2.538877735E2,4.907978699E-2,-9.007372260E-1,-4.349718392E-1,1.001467362E0
2.540881185E2,-5.550155640E-1,-8.196990192E-2,-2.594120800E-1,6.181067613E-1
2.542884625E2,5.804498792E-1,-6.573012471E-1,-4.566663504E-1,9.886916341E-1
2.544888075E2,-5.524184108E-1,7.128248811E-1,-1.639201343E-1,9.165998157E-1
2.546891525E2,5.541131496E-1,3.149970174E-1,3.617845178E-1,7.329069115E-1
2.548894975E2,-1.671428680E-1,8.238359094E-1,-2.563444078E-1,8.788371859E-1
2.550898425E2,-5.051976442E-1,-1.865578890E-1,1.212527081E-1,5.520242068E-1
2.552901875E2,-2.454421818E-1,1.667209566E-1,1.297627687E-1,3.238458246E-1
2.554905315E2,-3.297100067E-1,-3.063765764E-1,4.798684716E-1,6.579126425E-1
2.556908765E2,-2.575165033E-1,-6.547933817E-2,2.624442875E-1,3.734692722E-1
2.558912201E2,4.939708114E-1,-4.684526324E-1,-6.051704288E-1,9.108711650E-1
2.560915651E2,-2.982026432E-3,3.380466104E-1,-1.714606732E-1,3.790556235E-1
2.562919091E2,6.016735435E-1,2.553334236E-1,-1.373578757E-1,6.678872630E-1
2.564922541E2,-7.133610249E-1,4.234723747E-1,6.819766164E-1,1.073920346E0
2.566925981E2,-3.691493273E-1,3.933845460E-1,8.335099220E-1,9.928551843E-1
2.568929417E2,-1.362280250E-1,1.262683719E-1,6.943756938E-1,7.187902202E-1
2.570932867E2,2.504215203E-2,-7.256196737E-1,-4.279966056E-1,8.428120281E-1
2.572936307E2,-4.028595984E-1,-1.731930822E-1,-3.831514716E-1,5.823201439E-1
2.574939747E2,4.362943470E-1,-9.333954453E-1,-4.948967099E-1,1.143023433E0
2.576943197E2,-7.059329748E-2,7.379178405E-1,3.553064466E-1,8.220394297E-1
2.578946642E2,3.704129755E-1,4.547809660E-1,5.638597012E-1,8.136149348E-1
2.580950082E2,-4.184376299E-1,3.013255596E-1,2.121212482E-1,5.575684415E-1
2.582953522E2,-2.792161107E-1,-6.757419705E-1,-4.415170252E-1,8.541230185E-1
2.584956962E2,5.158511996E-1,2.462208867E-1,-1.138897240E-1,5.828362158E-1
2.586960412E2,-1.576240212E-1,-5.320284963E-1,-4.589101374E-1,7.200681684E-1
2.588963851E2,5.012216568E-1,5.704464316E-1,3.162378371E-1,8.225804825E-1
2.590967291E2,3.221458495E-1,-7.445251942E-1,-1.104083896E0,1.370071882E0
2.592970731E2,-3.758675456E-1,4.387791455E-1,-3.312308341E-2,5.787060471E-1
2.594974171E2,1.724795699E-1,1.571986973E-1,6.854815036E-2,2.432272217E-1
2.596977611E2,-5.068899989E-1,8.753153682E-1,9.361310601E-1,1.378207469E0
2.598981053E2,-2.729820311E-1,-2.875858843E-1,8.827283978E-1,9.676953315E-1
2.600984493E2,8.738052845E-2,-7.041388154E-1,-1.944728643E-1,7.357081779E-1
2.602987933E2,-1.730787754E-1,-2.932313643E-2,-3.013100624E-1,3.487174537E-1
2.604991373E2,9.807088226E-2,2.952792048E-1,-4.082408547E-1,5.132916347E-1
2.606994813E2,1.995798349E-1,-7.930847406E-1,-3.444017470E-1,8.873714440E-1
2.608998251E2,-5.037454367E-1,7.348889112E-1,7.385933399E-1,1.157299140E0
2.611001681E2,2.366975248E-1,6.271211058E-2,4.770891368E-1,5.362579338E-1
2.613005121E2,-6.868412495E-1,-6.206299067E-1,-3.459908068E-2,9.263527834E-1
2.615008561E2,-4.054253399E-1,-3.538092375E-1,-3.096228242E-1,6.208196002E-1
2.617012001E2,9.746128917E-1,-8.081640303E-2,-5.249894783E-2,9.793659781E-1
2.619015435E2,6.743499041E-1,-6.675006747E-1,-7.652472258E-1,1.218978367E0
2.621018875E2,1.010411084E-1,1.972886324E-1,1.224957258E-1,2.532534558E-1
2.623022315E2,-5.031740069E-1,2.656943202E-1,-4.752769470E-1,7.413944493E-1
2.625025745E2,8.174510673E-3,-4.720515013E-1,-1.142781228E-1,4.857560415E-1
2.627029185E2,8.493035287E-2,4.469357803E-2,6.319212168E-2,1.149083330E-1
2.629032615E2,2.410983145E-1,-3.827261925E-1,-1.621546410E-2,4.526264210E-1
2.631036045E2,4.137380123E-1,-2.856805176E-2,3.531119525E-1,5.446864487E-1
2.633039485E2,8.603104353E-1,-6.677604914E-1,-9.488462806E-1,1.444419393E0
2.635042915E2,-4.794611335E-1,4.545306787E-2,1.648880169E-2,4.818929762E-1
2.637046355E2,3.837350905E-1,1.996109933E-1,-4.906182736E-2,4.353208371E-1
2.639049794E2,-1.118113399E0,-3.074898012E-2,1.015306354E0,1.510619099E0
2.641053234E2,-1.692897230E-1,2.260932177E-1,5.024799109E-1,5.764227739E-1
2.643056664E2,2.686917782E-1,1.722501367E-1,1.271914393E-1,3.435739273E-1
2.645060104E2,7.691157609E-2,-2.133353949E-1,-2.731012106E-1,3.549812002E-1
2.647063534E2,1.488457806E-2,1.633287519E-1,-3.778015375E-1,4.118638533E-1
2.649066958E2,1.683154255E-1,-1.210951328E0,-4.647780061E-1,1.307957108E0
2.651070398E2,-7.198510766E-1,6.079705358E-1,3.582974672E-1,1.008062905E0
2.653073828E2,3.526203632E-1,4.396012723E-1,3.891649842E-1,6.848647926E-1
2.655077258E2,-7.036911845E-1,6.632781029E-1,4.794845283E-1,1.079363024E0
2.657080698E2,-4.041811228E-1,-4.991273880E-1,-2.555648088E-1,6.912336081E-1
2.659084137E2,7.977882624E-1,3.498986829E-3,-2.730789781E-1,8.432380937E-1
2.661087567E2,5.977510810E-1,-5.169516206E-1,-9.270421863E-1,1.218175910E0
2.663090997E2,3.343702257E-1,7.463116050E-1,6.026437879E-1,1.015856286E0
2.665094427E2,3.565435410E-1,-5.438184142E-1,-9.620621204E-1,1.161217158E0
2.667097857E2,-3.907642961E-1,-2.336112708E-1,-4.059792962E-3,4.552883074E-1
2.669101278E2,-1.714778244E-1,3.730241060E-1,1.247891486E-1,4.290966786E-1
2.671104708E2,-3.878131211E-1,2.663369477E-1,8.214913607E-1,9.466691303E-1
2.673108148E2,7.286616415E-2,-2.869258523E-1,6.237179972E-3,2.960993499E-1
2.675111578E2,-5.452433228E-2,-1.621991694E-1,-2.853581309E-1,3.327322291E-1
2.677115008E2,-2.647309601E-1,-2.077292651E-1,-5.627624989E-1,6.556947147E-1
2.679118428E2,3.984734043E-2,2.443477064E-1,-4.598146379E-1,5.222289856E-1
2.681121858E2,3.629510999E-1,-8.484205604E-1,-4.189633429E-1,1.013450162E0
2.683125288E2,1.665127836E-2,4.489077628E-1,8.506138325E-1,9.619455996E-1
2.685128718E2,9.144631773E-2,6.727832835E-3,4.139502048E-1,4.239840384E-1
2.687132148E2,-7.630354166E-1,-3.385433257E-1,-1.992298104E-2,8.350039254E-1
2.689135577E2,-8.197119832E-1,-3.843728304E-1,-9.541190416E-2,9.103700564E-1
2.691139007E2,5.256288052E-1,8.729786426E-2,-8.919917792E-2,5.402435111E-1
2.693142427E2,2.620633543E-1,-1.202354059E-1,-5.712196827E-1,6.398637983E-1
2.695145857E2,3.011675365E-2,3.210000098E-1,5.346948504E-1,6.243769760E-1
2.697149287E2,7.828987241E-1,-1.277301550E0,-9.379641414E-1,1.767542472E0
2.699152721E2,7.614886761E-2,5.370889604E-2,8.200397342E-2,1.241287525E-1
2.701156141E2,1.328292638E-1,3.388599157E-1,-1.915337145E-1,4.112843537E-1
2.703159571E2,-2.445179522E-1,5.159342289E-1,3.076452911E-1,6.485543791E-1
2.705163001E2,-3.254490495E-1,8.793299645E-2,6.961057782E-1,7.734420147E-1
2.707166421E2,2.430987954E-1,-3.159373999E-1,1.977269799E-1,4.449824980E-1
2.709169850E2,1.195894852E-1,-5.546609759E-1,-1.056580544E0,1.199296831E0
2.711173270E2,-2.417394891E-2,4.559494555E-1,-5.091659427E-1,6.839036796E-1
2.713176700E2,5.047615990E-2,-9.507945180E-1,-2.113709301E-1,9.753131437E-1
2.715180120E2,-3.642041683E-1,5.125282407E-1,4.939350784E-1,7.995634655E-1
2.717183550E2,3.195689619E-1,3.658679128E-1,5.842653513E-1,7.598352793E-1
2.719186967E2,-5.661694407E-1,3.398787677E-1,2.103139907E-1,6.930349104E-1
2.721190398E2,-4.939779043E-1,-4.600906968E-1,-2.827796340E-1,7.318892954E-1
2.723193818E2,3.249998093E-1,6.869113445E-1,-4.932514951E-2,7.615149648E-1
2.725197247E2,5.083295107E-1,-2.132111937E-1,-5.461442098E-2,5.539319810E-1
2.727200667E2,2.030575722E-1,1.696597040E-1,2.436245829E-1,3.596800386E-1
2.729204091E2,6.587290168E-1,-4.564626217E-1,-1.045228601E0,1.317112322E0
2.731207511E2,-1.707025319E-1,2.495547235E-1,-2.346805036E-1,3.827425417E-1
2.733210941E2,3.602891862E-1,1.218426824E-1,-1.213518977E-1,3.992245234E-1
2.735214361E2,-9.794893265E-1,4.987996519E-1,1.029024482E0,1.505686494E0
2.737217781E2,-5.826568007E-1,1.163786128E-1,7.198554873E-1,9.333942638E-1
2.739221196E2,3.486071527E-1,-2.804959416E-1,-2.632722445E-2,4.482165135E-1
2.741224616E2,3.692924380E-1,-3.526214957E-1,-7.216810584E-1,8.840488528E-1
2.743228046E2,-3.303113282E-1,-3.300656006E-2,-5.437995195E-1,6.371129601E-1
2.745231466E2,6.258939207E-2,-6.804544330E-1,-2.956185639E-1,7.445307265E-1
2.747234886E2,3.348542750E-2,3.901877701E-1,1.805512160E-1,4.312383464E-1
2.749238310E2,2.889353037E-1,3.286140263E-1,3.144425154E-1,5.388366018E-1
2.751241730E2,-6.886821389E-1,8.088618517E-1,5.359333754E-1,1.189859305E0
2.753245150E2,-7.554314733E-1,-7.561856508E-1,-1.878101826E-1,1.085249333E0
2.755248570E2,4.101071358E-1,5.632176995E-1,-3.129663467E-1,7.637735097E-1
2.757251990E2,-2.257991433E-1,-2.631541491E-1,1.483658999E-1,3.771575262E-1
2.759255415E2,2.908538282E-1,-2.064069659E-1,2.817606926E-1,4.545204867E-1
2.761258835E2,8.003525138E-1,-7.379138842E-3,-6.743851900E-1,1.046620267E0
2.763262255E2,-1.099304184E-1,4.601534307E-1,-1.128569320E-1,4.863769770E-1
2.765265665E2,1.235135943E-1,2.585407495E-1,-2.205332965E-1,3.615713788E-1
2.767269085E2,1.955911666E-1,-4.037269652E-1,1.082727537E-1,4.614914474E-1
2.769272495E2,-4.152047262E-2,1.390459687E-1,4.392760098E-1,4.626241929E-1
2.771275915E2,2.608065307E-1,-7.405253500E-2,1.578070223E-1,3.136987101E-1
2.773279335E2,1.784603111E-2,3.702376410E-2,4.812299833E-2,6.328556631E-2
2.775282745E2,-2.105140239E-1,-1.479821652E-1,-3.826784492E-1,4.611482093E-1
2.777286165E2,4.156193435E-1,-5.364887714E-1,-3.871541843E-2,6.797488685E-1
2.779289593E2,2.694072127E-1,-3.050274849E-1,-9.431527853E-1,1.027209418E0
2.781293003E2,1.812958568E-1,2.150406241E-1,1.998722404E-1,3.450500981E-1
2.783296423E2,-9.897251427E-2,-2.815351784E-1,-7.074484825E-1,7.678157140E-1
2.785299843E2,-1.814433187E-1,-5.792084336E-1,1.926358789E-2,6.072686171E-1
2.787303253E2,2.424060106E-1,8.448590040E-1,1.100813076E-1,8.858133578E-1
2.789306668E2,-6.551296115E-1,5.942062736E-1,1.036024809E0,1.362212652E0
2.791310078E2,-4.294818044E-1,-1.297545284E-1,5.026937723E-1,6.737892005E-1
2.793313498E2,3.681154847E-1,1.217033342E-2,-4.442167878E-1,5.770491155E-1
2.795316908E2,2.884811759E-1,-4.099122286E-1,-4.771296084E-1,6.920275191E-1
2.797320328E2,9.717619419E-2,1.385250390E-1,-4.934758246E-1,5.216807344E-1
2.799323736E2,-2.152577788E-1,-1.139050841E0,-1.873536408E-1,1.174254707E0
2.801327146E2,-3.660969734E-1,1.359564960E-1,-1.193862036E-1,4.083677612E-1
2.803330566E2,1.195725560E0,2.525156438E-1,7.820212096E-2,1.224597623E0
2.805333976E2,2.554683983E-1,-1.489852071E-1,4.564766288E-1,5.439040422E-1
2.807337396E2,-4.698096514E-1,-7.894181609E-1,-2.359804064E-1,9.484666012E-1
2.809340804E2,4.533137083E-1,5.110580325E-1,1.838387847E-1,7.074392762E-1
2.811344214E2,-7.228593528E-2,-2.840689719E-1,-1.382572204E-1,3.240918021E-1
2.813347624E2,6.044160947E-2,-3.167156875E-2,5.725858361E-2,8.907761683E-2
2.815351044E2,2.769971788E-1,-1.015114069E0,-8.799751997E-1,1.371692517E0
2.817354454E2,-1.869669068E-4,-5.855522305E-2,-1.000330150E-1,1.159109710E-1
2.819357868E2,2.260643393E-1,-7.090752572E-2,-1.867489517E-1,3.016755437E-1
2.821361278E2,-4.792414308E-1,1.914375275E-1,1.372606158E0,1.466413428E0
2.823364688E2,-2.109545171E-1,-6.911101341E-1,3.456394076E-1,8.010003907E-1
2.825368108E2,3.645499647E-1,-4.829936624E-1,-5.228201747E-1,7.997002499E-1
2.827371518E2,4.890520126E-2,-1.046359465E-1,-2.743470073E-1,2.976687427E-1
2.829374926E2,2.759817839E-1,1.546350867E-1,-4.135869443E-1,5.207034814E-1
2.831378336E2,-1.651949286E-1,-6.544449925E-1,-3.649440706E-1,7.673146599E-1
2.833381746E2,4.236316979E-1,1.200994492E0,1.053349257E0,1.652693632E0
2.835385156E2,1.684425026E-2,1.269585043E-1,9.591894597E-2,1.600082335E-1
2.837388566E2,-5.451310873E-1,7.435061932E-1,1.738518775E-1,9.381864617E-1
2.839391984E2,-2.073107660E-1,-6.588472128E-1,-4.806344509E-1,8.414670991E-1
2.841395394E2,3.244282901E-1,1.087217405E-1,-3.157480955E-1,4.655867182E-1
2.843398804E2,-4.574083686E-1,-8.665155172E-1,5.405901670E-1,1.119066256E0
2.845402214E2,4.815797806E-1,5.395544767E-1,-3.021936119E-1,7.838106260E-1
2.847405614E2,3.487924337E-1,-5.923624039E-1,-6.141132116E-1,9.217832804E-1
2.849409025E2,2.486051023E-1,3.412320465E-2,-1.737567224E-2,2.515368839E-1
2.851412435E2,-7.036323845E-2,2.159232795E-1,-6.604504585E-2,2.365074968E-1
2.853415845E2,-5.867284536E-1,1.174259305E0,1.113522768E0,1.721356485E0
2.855419255E2,-4.297762364E-2,-8.393136859E-1,6.404917836E-1,1.056657118E0
2.857422665E2,-1.287913918E-1,-3.999303281E-1,-6.286990643E-1,7.561706179E-1
2.859426065E2,2.557428479E-1,-4.823691249E-1,-4.701775312E-1,7.205215387E-1
2.861429475E2,-9.755774587E-2,3.775044978E-1,-3.738488555E-1,5.401760142E-1
2.863432885E2,4.212260544E-1,-3.576138318E-1,-3.008697629E-1,6.291594836E-1
2.865436285E2,2.103239596E-1,4.437477887E-1,5.872326493E-1,7.655001322E-1
2.867439695E2,4.484938085E-1,-3.474560082E-1,5.139844492E-2,5.696614556E-1
2.869443100E2,5.596498027E-2,8.486647606E-1,4.296437800E-1,9.528681612E-1
2.871446500E2,2.420793772E-1,-4.525730610E-1,-3.068901040E-2,5.141659418E-1
2.873449910E2,1.000774130E-1,6.048920751E-1,-7.258230448E-2,6.173962277E-1
2.875453310E2,-1.860799909E0,6.902245283E-1,1.243822575E0,2.342238416E0
2.877456720E2,2.467424572E-1,-5.761339068E-1,2.077202946E-1,6.602725495E-1
2.879460117E2,3.103573620E-1,-1.611666083E-1,-7.780220509E-1,8.530033291E-1
2.881463527E2,6.986256838E-1,-5.751439929E-1,-3.829368651E-1,9.826032268E-1
2.883466927E2,7.537164539E-2,-8.604375273E-2,-5.013883114E-1,5.142709900E-1
2.885470337E2,-1.890016794E-1,-8.607767820E-1,-3.733924329E-1,9.571207929E-1
2.887473737E2,2.965263836E-2,6.046571732E-1,7.370689511E-1,9.538135115E-1
2.889477143E2,-2.368667535E-2,-2.144994736E-1,8.401806653E-2,2.315817744E-1
2.891480553E2,-6.390693188E-1,4.492742717E-1,-2.937923186E-3,7.811949800E-1
2.893483953E2,4.819105268E-1,-1.126992423E-2,-4.316659868E-1,6.470705457E-1
2.895487353E2,-1.064919010E-1,-3.662717044E-1,1.124983802E-1,3.976825015E-1
2.897490763E2,1.641598195E-1,-5.363562107E-1,-4.751245379E-1,7.350984680E-1
2.899494157E2,6.875466108E-1,6.530359983E-1,1.032834426E-1,9.538573409E-1
2.901497557E2,-2.173567563E-1,-1.821821928E-1,-1.757103950E-1,3.336292160E-1
2.903500957E2,-3.409643769E-1,-2.418285310E-1,-4.871473461E-2,4.208454231E-1
2.905504357E2,5.607439876E-1,-5.891866088E-1,-1.582322121E-1,8.286206083E-1
2.907507767E2,-9.065229893E-1,-4.144898653E-1,5.393632054E-1,1.133357157E0
2.909511170E2,1.993933171E-1,-1.165526174E-2,2.790550888E-1,3.431694663E-1
2.911514570E2,6.152122021E-1,-1.414596802E-3,-6.873276830E-1,9.224464204E-1
2.913517970E2,1.370185763E-1,3.267390281E-2,-5.698065460E-2,1.519489031E-1
2.915521370E2,2.489163429E-1,1.590534002E-1,-2.804406285E-1,4.073134861E-1
2.917524770E2,-6.777369976E-1,5.007053614E-1,4.642247856E-1,9.620488285E-1
2.919528171E2,-3.180253804E-1,-1.701809466E-1,8.426639438E-1,9.166156333E-1
2.921531571E2,-4.031802118E-1,-1.554520726E-1,1.129487306E-1,4.466285322E-1
2.923534971E2,6.651337743E-1,-8.180681467E-1,-4.861799181E-1,1.161038045E0
2.925538371E2,1.280761063E-1,-2.214663029E-1,-6.067218184E-1,6.584543851E-1
2.927541771E2,2.521619499E-1,-4.819074571E-1,3.860162571E-2,5.452618928E-1
2.929545161E2,4.600980282E-1,1.137194991E0,-2.432559431E-1,1.250630280E0
2.931548561E2,4.726316929E-1,2.100003660E-1,4.800241813E-2,5.194084164E-1
2.933551961E2,4.930518270E-1,-3.937412500E-1,-5.613520145E-1,8.445403248E-1
2.935555361E2,-9.795233607E-2,-2.677582502E-1,-3.886607885E-1,4.820231833E-1
2.937558761E2,1.553986073E-1,3.441690207E-1,-1.001147255E-1,3.906712175E-1
2.939562146E2,-3.927427903E-2,1.168045759E0,1.131422281E0,1.626649853E0
2.941565546E2,1.633811891E-1,-5.531470776E-1,2.926763892E-1,6.467801568E-1
2.943568946E2,5.528024435E-1,7.973383665E-1,-6.237539276E-2,9.722292435E-1
2.945572336E2,-3.016411066E-1,-1.076723933E0,-2.824538052E-1,1.153300454E0
2.947575736E2,-2.586664855E-1,-3.231479228E-1,-2.042719871E-1,4.615842019E-1
2.949579131E2,1.809943169E-1,-3.595855534E-1,-6.077546477E-1,7.289900032E-1
2.951582531E2,1.027606800E-1,4.835395813E-1,1.015634611E-1,5.046636709E-1
2.953585931E2,1.403561532E-1,9.799399227E-2,4.880888388E-2,1.780027512E-1
2.955589321E2,-5.181505531E-2,8.196797371E-1,3.756698966E-1,9.031542186E-1
2.957592721E2,-1.351793170E0,-6.836222410E-1,-1.873657554E-1,1.526364986E0
2.959596108E2,4.390161932E-1,-9.624156356E-2,8.928830922E-2,4.582248996E-1
2.961599508E2,2.968367636E-1,-4.509349465E-1,-4.917069897E-2,5.420997582E-1
2.963602898E2,-6.811521202E-2,3.426292241E-1,2.811332047E-1,4.484086820E-1
2.965606288E2,6.510347128E-1,-3.220591247E-1,-5.967736840E-1,9.400569701E-1
2.967609688E2,2.941966653E-1,3.260691464E-2,-2.532806695E-1,3.895715419E-1
2.969613076E2,-4.060636088E-2,-1.672870964E-1,-1.671626568E-1,2.399525015E-1
2.971616476E2,-9.050866961E-2,1.658698469E-1,2.130290866E-1,2.847560660E-1
2.973619866E2,-1.611454636E-1,3.083707690E-1,6.717504859E-1,7.565111413E-1
2.975623256E2,-4.483282566E-1,7.866249681E-1,-4.856718332E-2,9.067170658E-1
2.977626646E2,-7.780753076E-2,-3.521107733E-1,-8.676999062E-2,3.708976136E-1
2.979630052E2,-3.845030963E-1,-8.404929042E-1,-1.970480233E-1,9.450390873E-1
2.981633442E2,5.177978873E-1,3.640720546E-1,1.060366631E-2,6.330683619E-1
2.983636832E2,7.493722439E-1,-5.351014137E-1,-3.226468265E-1,9.757014182E-1
2.985640222E2,-3.306059837E-1,2.525071502E-1,3.625081778E-1,5.517901379E-1
2.987643612E2,3.908482492E-1,-6.184599996E-1,-8.370438218E-1,1.111709263E0
2.989647009E2,4.088222086E-1,-4.857121408E-2,-3.648967445E-1,5.501312528E-1
2.991650399E2,1.295766234E-1,3.997434080E-1,4.351820052E-2,4.224674275E-1
2.993653789E2,-5.742835402E-1,5.965689421E-1,1.429121852E0,1.651691665E0
2.995657179E2,-2.651122808E-1,-7.739547491E-1,-3.906331211E-2,8.190338317E-1
2.997660569E2,4.249667376E-2,2.309501618E-1,1.091158688E-1,2.589405672E-1
2.999663958E2,1.784636639E-2,-5.416576266E-1,-4.053155780E-1,6.767512062E-1
3.001667348E2,-4.885580838E-1,1.354446560E-1,-2.390307337E-1,5.605086509E-1
3.003670738E2,7.120155096E-1,-5.673414469E-1,-3.764354885E-1,9.851629714E-1
3.005674128E2,4.941681921E-1,6.609203815E-1,3.049228489E-1,8.797703659E-1
3.007677518E2,2.875387482E-2,3.914019093E-2,2.238242179E-1,2.290327933E-1
3.009680908E2,-7.515934110E-1,6.909536123E-1,2.364416718E-1,1.047957162E0
3.011684298E2,-8.756341040E-2,-3.557415903E-1,-1.172876135E-1,3.846762459E-1
3.013687678E2,-8.190383762E-2,3.204874694E-1,2.335513830E-1,4.049280247E-1
3.015691068E2,-4.245828986E-1,5.173578858E-1,8.578271270E-1,1.088024448E0
3.017694458E2,1.406902522E-1,-1.079060137E-1,2.922497690E-1,3.418294638E-1
3.019697853E2,3.213143647E-1,-3.713524938E-1,-4.199187160E-1,6.461248514E-1
3.021701243E2,5.733320713E-1,-1.909239590E-1,-6.927978992E-1,9.193098234E-1
3.023704633E2,7.511001080E-2,2.047740966E-1,-3.978005946E-1,4.536730733E-1
3.025708013E2,2.571931779E-1,-2.001355737E-1,1.323928982E-1,3.517534053E-1
3.027711403E2,-4.194360673E-1,4.956877232E-1,6.695386767E-1,9.326923250E-1
3.029714788E2,-2.514488399E-1,3.745631576E-1,4.223781526E-1,6.180027362E-1
3.031718168E2,-2.315915078E-1,3.435687423E-1,8.427079320E-1,9.390584464E-1
3.033721558E2,-2.040688097E-1,-2.818885446E-1,-6.561665237E-2,3.541338387E-1
3.035724948E2,-4.520761222E-2,-1.994276941E-1,7.424998283E-2,2.175504386E-1
3.037728328E2,7.451097667E-2,-1.658359542E-2,5.659430027E-1,5.710677574E-1
3.039731720E2,-9.064619243E-2,1.299536377E-1,3.442772031E-1,3.789874308E-1
3.041735110E2,3.595775068E-1,-1.532080024E-1,-3.587825894E-1,5.305597251E-1
3.043738490E2,2.852079570E-1,5.700375438E-1,-3.666464686E-1,7.353339466E-1
3.045741880E2,1.115515605E-1,-6.418596953E-3,-4.255844057E-1,4.400079947E-1
3.047745260E2,2.654713392E-1,-9.665533900E-1,-4.368733168E-1,1.093416107E0
3.049748648E2,-4.112006724E-1,-4.999618232E-2,3.928186595E-1,5.708696090E-1
3.051752028E2,-3.635973036E-1,5.778986216E-1,5.822406411E-1,8.973148724E-1
3.053755418E2,-8.932048678E-1,3.146773875E-1,5.118741989E-1,1.076499879E0
3.055758798E2,-7.798444629E-1,-4.611482918E-1,-6.729581952E-2,9.084843756E-1
3.057762188E2,1.469409913E-1,5.115613937E-1,1.088931859E-1,5.432719765E-1
3.059765568E2,-2.334962785E-1,1.292316318E-1,3.031441271E-1,4.038783091E-1
3.061768958E2,-5.335179716E-2,5.851475000E-1,3.813930452E-1,7.005031520E-1
3.063772338E2,2.317329347E-1,-3.288768232E-1,-2.712510526E-1,4.852187665E-1
3.065775718E2,3.284175321E-2,1.958884150E-1,-2.235411406E-1,2.990342679E-1
3.067779108E2,3.475545049E-1,-1.438246816E-1,-1.634147167E-1,4.101024781E-1
3.069782487E2,-2.035641819E-1,-1.929994076E-1,-5.862106085E-1,6.498692369E-1
3.071785867E2,-4.435999990E-1,5.858718157E-1,7.257338762E-1,1.032819637E0
3.073789247E2,1.474921703E-1,1.809241027E-1,1.470773518E-1,2.758971161E-1
3.075792637E2,-5.453804731E-1,5.414934754E-1,4.839347005E-1,9.082113404E-1
3.077796017E2,-2.439505905E-1,-1.297767758E-1,-2.553286850E-1,3.762268459E-1
3.079799403E2,2.878580987E-1,3.640374839E-1,1.485433280E-1,4.872891288E-1
3.081802783E2,-5.372366905E-1,-8.860034347E-1,-4.130922556E-1,1.115468762E0
3.083806163E2,-1.834289134E-1,3.437675163E-2,9.334684908E-2,2.086661485E-1
3.085809543E2,3.261861503E-1,2.448650002E-1,-5.709669590E-1,7.016833625E-1
3.087812933E2,-1.824268550E-1,-4.157973528E-1,-2.043088824E-1,4.979047252E-1
3.089816304E2,3.334785998E-1,-9.995361418E-2,-5.264478922E-1,6.311466428E-1
3.091819684E2,6.711836904E-2,1.050541252E-1,-3.271248341E-1,3.500741375E-1
3.093823064E2,-1.928228289E-1,1.189515114E0,4.196537137E-1,1.276023546E0
3.095826444E2,5.199218988E-1,9.172899723E-1,3.815687001E-1,1.121309211E0
3.097829824E2,2.234026045E-1,-3.904296458E-1,-3.759318888E-1,5.862327328E-1
3.099833207E2,-1.316722948E-2,-5.538856983E-1,-3.367276490E-1,6.483426967E-1
3.101836587E2,-4.856231809E-1,5.449715853E-1,1.532102935E-2,7.301086470E-1
3.103839967E2,-2.852345407E-1,2.307095230E-1,4.817486107E-1,6.055306360E-1
3.105843347E2,-5.439064503E-1,2.103014737E-1,6.127167940E-1,8.458621674E-1
3.107846727E2,-2.088862211E-1,4.797406867E-2,-4.122445732E-2,2.182531111E-1
3.109850116E2,9.463022351E-1,4.711680859E-2,3.661319613E-2,9.481816493E-1
3.111853496E2,-3.860667646E-1,-2.679519355E-1,-4.093367755E-1,6.232193693E-1
3.113856876E2,3.133229613E-1,-2.617845535E-1,-1.116204187E-1,4.232747907E-1
3.115860246E2,2.060714811E-1,-5.023279190E-1,1.083749905E-1,5.536640968E-1
3.117863626E2,-1.063732132E-1,6.058310270E-1,1.171773896E-1,6.261605500E-1
3.119867003E2,7.879774570E-1,-3.849605620E-1,-4.533003867E-1,9.872103867E-1
3.121870383E2,2.816426158E-1,-2.896646559E-1,-6.741496921E-1,7.859427353E-1
3.123873763E2,1.170208827E-1,-2.798645571E-2,-4.838042855E-1,4.985415884E-1
3.125877143E2,-7.926801443E-1,-3.719051778E-1,-1.204050034E-1,8.838283981E-1
3.127880513E2,1.344875991E-1,7.687420398E-2,5.551803112E-1,5.763867933E-1
3.129883890E2,-3.152630329E-1,2.095637284E-2,2.623166442E-1,4.106579736E-1
3.131887270E2,-1.153311253E0,-6.293984503E-2,2.277928889E-1,1.177275613E0
3.133890640E2,-3.762599826E-1,-1.661133915E-1,-1.615288258E-1,4.418787106E-1
3.135894020E2,8.891741931E-2,-1.877420396E-2,-2.731015980E-1,2.878250528E-1
3.137897400E2,-7.553746104E-1,-4.156611264E-1,4.911616445E-1,9.922725105E-1
3.139900768E2,-2.543821633E-1,-3.894167542E-1,2.671934664E-1,5.364215152E-1
3.141904148E2,1.270115972E-1,4.629647136E-1,-3.874809742E-1,6.169357967E-1
3.143907528E2,4.048213363E-1,-9.632674456E-1,-8.683468103E-1,1.358598789E0
3.145910898E2,-5.718103647E-1,-6.595262289E-1,-1.476412058E0,1.715148537E0
3.147914278E2,6.698442996E-2,5.091575980E-1,-2.433942258E-1,5.683037239E-1
3.149917648E2,-7.576091588E-2,-1.147983551E0,-3.943373263E-1,1.216185790E0
3.151921028E2,-1.299275309E-1,2.254694551E-1,6.145045161E-1,6.673330794E-1
3.153924408E2,1.098451853E0,5.680863261E-1,-5.606884360E-1,1.357825493E0
3.155927778E2,9.763554931E-1,-3.809316456E-1,-7.279332876E-1,1.276035203E0
3.157931158E2,1.883437186E-1,8.733701706E-1,-5.094174743E-1,1.028472155E0
3.159934531E2,-8.724506199E-2,9.129197001E-1,-1.300781518E-1,9.262582822E-1
3.161937901E2,6.664233208E-1,-7.817189097E-1,-3.381936252E-1,1.081470954E0
3.163941281E2,7.619973272E-2,-9.221934080E-1,-6.029117387E-3,9.253558404E-1
3.165944651E2,-1.008202359E-1,4.952218533E-1,-4.643153846E-1,6.862930717E-1
3.167948031E2,-9.618422389E-2,-5.153729916E-1,-8.934711218E-1,1.035930196E0
3.169951398E2,-5.375740528E-1,-3.741665483E-1,-1.228762150E0,1.392423387E0
3.171954778E2,2.345512658E-1,-2.897776663E-1,-6.073912382E-1,7.126777031E-1
3.173958148E2,2.717424370E-2,-4.806388617E-1,-1.210015193E-1,4.963804212E-1
3.175961518E2,-2.776577175E-1,-3.635025024E-1,1.025889143E-1,4.687775194E-1
3.177964898E2,5.560146570E-1,-5.648427010E-1,-9.540483952E-1,1.240325730E0
3.179968272E2,1.022853136E0,1.047528625E0,4.604246318E-1,1.534775423E0
3.181971642E2,4.056632519E-1,-6.145598292E-1,-4.100549817E-1,8.428472849E-1
3.183975022E2,-2.472608350E-3,1.701934487E-1,5.090892687E-2,1.776615957E-1