"time","Acceleration x","Acceleration y","Acceleration z","abs Acceleration"
2.163320833E-1,-4.150568848E0,2.622995453E0,8.243208160E0,9.594676007E0
4.167270835E-1,-2.376458130E0,3.456911316E0,8.059689789E0,9.086054621E0
6.171230834E-1,-2.242037659E0,2.515818329E0,9.766889648E0,1.033190244E1
8.175180834E-1,-7.547305298E-1,9.945318604E-1,1.409977936E1,1.415494577E1
1.017912333E0,-6.466552734E-2,1.235979767E0,7.020550690E0,7.128811935E0
1.218307334E0,-8.638536072E-1,2.887345734E0,1.003138962E1,1.047433941E1
1.418702333E0,-1.301992493E0,2.792293396E0,1.192106003E1,1.231274783E1
1.619097333E0,-1.029559021E0,3.068618774E-1,6.579118652E0,6.666255188E0
1.819492333E0,1.460961914E-1,2.351011047E0,5.974076843E0,6.421696907E0
2.019887083E0,3.656895447E-1,3.930077362E0,1.313503555E1,1.371526142E1
2.220283083E0,4.308041382E-1,4.145778809E0,2.219135284E0,4.722037224E0
2.420678083E0,4.658312988E-1,3.967798920E0,5.755531311E0,7.006180681E0
2.621073083E0,-1.038091278E0,3.599414978E0,1.321122711E1,1.373207717E1
2.821468083E0,-2.092648315E-1,2.925666046E0,6.442303162E0,7.078600399E0
3.021862708E0,1.573976898E0,5.253924408E0,6.958280182E0,8.859954179E0
3.222257708E0,1.104553070E0,3.238216095E0,1.130194748E1,1.180847568E1
3.422653708E0,-1.091081085E0,1.585652618E0,8.082891541E0,8.308904129E0
3.623048708E0,-7.348219299E-1,3.819607086E0,8.061635742E0,8.950940308E0
3.823443708E0,2.802172852E-1,1.555265808E0,1.478340775E1,1.486763324E1
4.023838958E0,-1.218017120E0,2.869532776E-1,8.095016327E0,8.191165804E0
4.224234958E0,-3.310815125E0,1.419947205E0,1.232836304E1,1.284392004E1
4.424629958E0,-4.085903320E0,-2.773282928E0,1.522858200E1,1.600922902E1
4.625024959E0,-3.393443298E0,6.834786987E-1,7.438631287E0,8.204622841E0
4.825419958E0,-1.260229340E0,3.376229095E0,1.126227997E1,1.182480659E1
5.025816125E0,-4.788841553E0,-1.795965271E0,1.029828461E1,1.149839817E1
5.226211125E0,-1.386117554E-1,1.483415222E0,5.719306641E0,5.910177864E0
5.426606125E0,-2.185006256E0,3.351380768E0,1.770727753E1,1.815361349E1
5.627002125E0,1.442400513E0,2.982398071E0,1.871857452E0,3.805137030E0
5.827397125E0,2.582130432E-1,3.954476624E0,6.485114136E0,7.600083203E0
6.027792458E0,-1.802850952E0,7.400610352E-1,1.548514847E1,1.560729909E1
6.228188458E0,8.131091309E-1,1.692680054E0,8.318651276E0,8.527969938E0
6.428583459E0,1.468146973E0,3.965104523E0,1.050305878E1,1.132217970E1
6.628978458E0,-1.556313629E0,-1.792672119E0,1.377854736E1,1.398156475E1
6.829374458E0,-1.109642487E0,1.921853485E0,5.810766449E0,6.220115272E0
7.029768750E0,-2.864593048E0,1.920356598E0,1.610036911E1,1.646558679E1
7.230163750E0,-2.247725830E0,4.706213379E-1,5.560786285E0,6.016319470E0
7.430559750E0,-1.025367737E-1,3.665727081E0,4.810546417E0,6.048919379E0
7.630954750E0,-2.515818329E0,3.420387268E0,1.463820969E1,1.524157386E1
7.831349750E0,4.752616882E-1,3.406615906E0,5.890849915E0,6.821511439E0
8.031745333E0,-6.786886597E-1,3.504063263E0,8.504115601E0,9.222746868E0
8.232140333E0,-6.150709534E-1,3.872596893E0,1.185070633E1,1.248257023E1
8.432535333E0,-8.616082764E-1,6.131250000E-1,1.090377548E1,1.095493546E1
8.632931334E0,-1.213975525E-1,4.328698425E0,9.220675507E0,1.018691436E1
8.833326333E0,-1.978286133E0,-1.152453461E0,1.280931290E1,1.301231193E1
9.033722458E0,-9.937834167E-1,3.205883331E0,5.243146820E0,6.225422234E0
9.234117458E0,-2.300715637E0,3.131787415E0,1.321137680E1,1.377105159E1
9.434512459E0,-1.402583313E0,2.071542206E0,4.042493591E0,4.753975336E0
9.634908458E0,9.581575012E-1,4.098477173E0,6.226302338E0,7.515478809E0
9.835303458E0,-8.517288208E-2,4.772824860E0,1.223540634E1,1.313363163E1
1.003569858E1,1.845661926E-1,2.175875244E0,5.762117615E0,6.162020542E0
1.023609458E1,5.972579956E-2,3.843557281E0,8.136180725E0,8.998551913E0
1.043648958E1,2.555186462E-1,1.523531799E0,1.194201645E1,1.204151966E1
1.063688458E1,-1.219813385E0,1.236728210E0,4.721032562E0,5.030466163E0
1.083727958E1,-1.116677856E-1,3.878883820E0,1.176957504E1,1.239278444E1
1.103767621E1,-1.378483429E0,-9.104067993E-1,8.672814789E0,8.828746993E0
1.123807121E1,-3.079096985E-1,2.737357635E0,6.734046478E0,7.275666099E0
1.143846621E1,-1.175355835E0,2.549647980E0,1.487935822E1,1.514191094E1
1.163886221E1,-1.847158813E0,2.344125366E-1,4.788542175E0,5.137808977E0
1.183925721E1,2.841091919E-1,2.837798767E0,5.801785126E0,6.464868948E0
1.203965200E1,-1.605561218E0,3.012186127E0,1.328936462E1,1.372072535E1
1.224004700E1,-9.731263733E-1,8.505313110E-1,8.372838593E0,8.472001213E0
1.244044200E1,-6.939569092E-1,3.536695404E0,5.371130676E0,6.468294622E0
1.264083800E1,-6.882687378E-1,4.430486755E0,1.433149750E1,1.501648252E1
1.284123300E1,-2.355651398E0,1.922003174E-1,7.874375153E0,8.221424360E0
1.304162808E1,-1.328936462E0,3.420836334E0,1.022089554E1,1.085978356E1
1.324202308E1,-2.549947357E0,1.624122620E-1,1.268117935E1,1.293603181E1
1.344241808E1,-9.262738037E-1,3.221600647E0,6.968758392E0,7.733064555E0
1.364281308E1,-1.644480286E0,4.364474030E0,1.058463913E1,1.156665615E1
1.384320808E1,-4.534221039E0,-2.242636414E0,8.774603119E0,1.012828902E1
1.404360383E1,-6.875202942E-1,3.081791382E0,5.410199432E0,6.264214250E0
1.424399883E1,-3.480262756E0,2.321821747E0,1.427880707E1,1.487909326E1
1.444439383E1,-2.266885986E0,-1.930984497E-1,5.797444153E0,6.227874259E0
1.464478883E1,-6.927593994E-1,2.588267670E0,6.090534668E0,6.653845329E0
1.484518383E1,-2.855911102E0,1.251397705E0,1.501512589E1,1.533545662E1
1.504557796E1,-1.636846161E0,-6.421646118E-2,8.167016602E0,8.329678822E0
1.524597296E1,7.589218140E-1,3.971241760E0,1.001941452E1,1.080441534E1
1.544636796E1,-1.276545410E0,-1.908231812E0,1.562555649E1,1.579331923E1
1.564676296E1,-1.749561768E0,1.452579346E0,5.651347961E0,6.091689988E0
1.584715796E1,-2.077978821E0,1.967059479E0,1.267369492E1,1.299268493E1
1.604755321E1,-3.554358673E0,-1.087937622E0,8.832832031E0,9.583109910E0
1.624794821E1,-7.960446167E-1,1.774110718E0,4.897066498E0,5.269005234E0
1.644834321E1,-3.021766205E0,1.728605347E0,1.768871613E1,1.802802889E1
1.664873821E1,2.128573608E-1,1.684596863E0,4.602628784E0,4.905850239E0
1.684913221E1,1.306782532E-1,3.895349579E0,7.741601257E0,8.667364950E0
1.704952658E1,-1.260379028E-1,2.359992371E0,1.420560928E1,1.440086055E1
1.724992158E1,-1.619182892E0,-2.116598511E-1,1.056428146E1,1.068974256E1
1.745031658E1,2.035766602E-1,2.855611725E0,1.178394516E1,1.212671948E1
1.765071158E1,-3.359314270E0,-2.534828796E0,1.355281677E1,1.419116598E1
1.785110558E1,-1.823957062E0,1.031055908E0,9.069190521E0,9.308067058E0
1.805150058E1,-1.478176117E0,2.787353668E0,1.196611633E1,1.237506708E1
1.825189558E1,-3.715872803E0,2.791694641E-1,6.398294678E0,7.404310978E0
1.845229058E1,-7.855664063E-1,3.648961945E0,3.907624054E0,5.403847111E0
1.865268458E1,-1.253643036E0,3.730542297E0,1.479687973E1,1.531131008E1
1.885307958E1,6.059399414E-1,1.990560608E0,3.283721466E0,3.887456934E0
1.905347371E1,-9.726773071E-1,3.522325287E0,8.771160278E0,9.501901346E0
1.925386871E1,-9.602531433E-1,3.680546265E0,1.361912888E1,1.414033869E1
1.945426371E1,-1.179547119E0,6.104306030E-1,9.977801056E0,1.006580701E1
1.965465771E1,-4.538562012E-1,4.714595947E0,7.567213898E0,8.927268707E0
1.985505271E1,-1.481768646E0,-8.553213501E-1,1.575967758E1,1.585227587E1
2.005544683E1,-1.399290161E0,1.809586945E0,5.713319092E0,6.154236988E0
2.025584183E1,-9.993218994E-1,3.582350464E0,1.335388046E1,1.386210671E1
2.045623583E1,-4.215384064E0,-2.769391022E0,1.175340866E1,1.278990245E1
2.065663083E1,-4.113446045E-1,2.466720428E0,5.695206757E0,6.220071869E0
2.085702483E1,-1.690584412E0,2.518363037E0,1.613853973E1,1.642110510E1
2.105741858E1,-7.858657837E-2,1.724713440E0,3.700903931E0,4.083809766E0
2.125781358E1,-8.518785095E-1,3.099604340E0,6.119424591E0,6.912351364E0
2.145820758E1,-3.068618774E0,2.191592560E0,1.562016769E1,1.606888726E1
2.165860158E1,-9.755213928E-1,2.241738281E0,4.974754944E0,5.543033399E0
2.185899658E1,4.875361633E-1,4.412075043E0,9.007818146E0,1.004215542E1
2.205939050E1,-1.960323486E0,-4.764591980E-1,1.540386749E1,1.553541165E1
2.225978450E1,-1.395997009E0,1.575922852E0,5.167254639E0,5.579682875E0
2.246017850E1,-2.633473663E0,1.929487610E0,1.349608475E1,1.388533073E1
2.266057250E1,-3.693269806E0,-6.849755859E-1,1.093356354E1,1.156080642E1
2.286096650E1,-9.428892517E-1,2.172582092E0,4.497098236E0,5.082621925E0
2.306136071E1,-3.450175323E0,4.006418610E0,1.800111649E1,1.876153764E1
2.326175471E1,1.486408997E-1,3.660338287E0,3.911665649E0,5.359225564E0
2.346214871E1,-1.575473785E0,4.098926239E0,5.530698853E0,7.062007063E0
2.366254271E1,-1.887574768E0,3.553310852E0,1.231459167E1,1.295523541E1
2.386293671E1,-1.180145874E0,2.978356476E0,7.207811279E0,7.887705308E0
2.406333108E1,-7.050338745E-1,4.884193268E0,8.791368256E0,1.008169492E1
2.426372508E1,1.327888641E0,4.013903046E0,1.357152786E1,1.421481883E1
2.446411908E1,-1.553020477E0,1.727407837E0,8.759634247E0,9.062394969E0
2.466451308E1,-7.502398682E-1,2.799927521E0,1.017868332E1,1.058338547E1
2.486490708E1,-3.256927185E0,4.875361633E-1,1.392853546E1,1.431255974E1
2.506530008E1,5.533992004E-1,2.272274780E0,4.736600189E0,5.282505533E0
2.526569408E1,-2.099533997E0,2.856659546E0,1.374411896E1,1.419399002E1
2.546608808E1,-8.451425171E-1,1.304387512E0,4.833299103E0,5.077053562E0
2.566648108E1,-1.751358032E-1,3.282823334E0,4.571343842E0,5.630700321E0
2.586687508E1,-7.030879211E-1,3.948040009E0,1.185280197E1,1.251280413E1
2.606726950E1,-1.323098602E0,1.022074585E0,7.793094177E0,7.970416753E0
2.626766250E1,8.292755127E-2,3.495980072E0,7.138954468E0,7.949429196E0
2.646805650E1,-7.024891663E-1,-2.576142883E-1,1.580443451E1,1.582213659E1
2.666844950E1,-1.301094360E0,1.253193970E0,6.583160248E0,6.826517451E0
2.686884250E1,-1.781295776E-2,3.514242096E0,1.267638931E1,1.315450724E1
2.706923575E1,-2.949765930E0,-1.451082458E0,1.410681473E1,1.448478447E1
2.726962875E1,-1.420096893E0,1.281934204E0,5.433401184E0,5.760371422E0
2.747002275E1,-9.689350891E-1,3.697161713E0,1.489956619E1,1.538196713E1
2.767041575E1,-9.065148926E-1,-7.559280396E-2,6.416107635E0,6.480271654E0
2.787080875E1,-1.350491638E0,3.489842834E0,4.704117737E0,6.010952866E0
2.807120183E1,-1.470841370E0,4.352798309E0,1.356134903E1,1.431853397E1
2.827159483E1,-9.292675781E-1,2.058818665E0,6.453230438E0,6.837137970E0
2.847198783E1,4.065545654E-1,4.137096863E0,7.861651611E0,8.893054769E0
2.867238183E1,-1.218915253E0,2.624192963E0,1.302426590E1,1.334180068E1
2.887277483E1,-6.008505249E-1,2.471660156E0,5.339845734E0,5.914733953E0
2.907316783E1,-1.904339905E0,3.068918152E0,1.146316223E1,1.201868784E1
2.927356083E1,-2.002236328E0,-8.496331787E-1,1.557526108E1,1.572639770E1
2.947395383E1,-1.723515930E0,3.936813354E-2,8.878636780E0,9.044459524E0
2.967434583E1,-1.051862640E0,4.265978851E0,1.035157379E1,1.124544666E1
2.987473883E1,-1.842069397E0,-1.612147522E-1,1.026310776E1,1.042835513E1
3.007513208E1,1.203497314E-1,3.800596619E0,3.586392059E0,5.226971085E0
3.027552508E1,-2.600841522E0,3.917802887E0,1.255349487E1,1.340536421E1
3.047591808E1,-2.096839600E0,1.477277985E0,3.836521912E0,4.614974207E0
3.067631108E1,4.938230896E-1,3.239862671E0,4.990322571E0,5.970250475E0
3.087670308E1,-1.466350708E0,4.218527527E0,1.423539734E1,1.491954075E1
3.107709546E1,5.773493958E-1,2.512076111E0,6.359674988E0,6.862166179E0
3.127748846E1,-2.160756683E0,3.498824158E0,5.073848877E0,6.531047570E0
3.147788046E1,-5.728587341E-1,4.800068207E0,1.343366455E1,1.427698025E1
3.167827346E1,-1.952839050E0,6.228547668E-1,9.667496338E0,9.882409315E0
3.187866546E1,-1.230441284E0,3.908821564E0,1.029319519E1,1.107893221E1
3.207905883E1,-4.820575562E0,-3.386407928E0,1.470287521E1,1.583919969E1
3.227945083E1,-1.731150055E0,2.233954468E0,4.690346375E0,5.476018827E0
3.247984383E1,-1.095721436E0,2.792592773E0,1.361628479E1,1.394282580E1
3.268023583E1,-3.234024811E0,-1.184935913E0,7.298223267E0,8.070133360E0
3.288062783E1,-2.465373230E-1,3.226240997E0,7.094496918E0,7.797518717E0
3.308102108E1,-2.428849182E0,2.632874908E0,1.327768890E1,1.375239475E1
3.328141308E1,7.503895569E-1,2.229164429E0,8.751551056E0,9.062113684E0
3.348180508E1,3.420387268E-1,2.431393890E0,8.146359558E0,8.508339485E0
3.368219708E1,3.279380493E0,4.158801727E0,1.366957397E1,1.465971422E1
3.388259008E1,-7.734416199E-1,1.021475830E0,9.913434906E0,9.995889978E0
3.408298200E1,5.328918457E-1,4.610262909E0,9.583520966E0,1.064811589E1
3.428337400E1,-1.403331757E0,-1.128353577E0,1.429093185E1,1.440393193E1
3.448376600E1,-1.222956848E-1,1.903441772E0,7.006030884E0,7.261027170E0
3.468415800E1,-7.726931763E-1,3.004102936E0,1.164443527E1,1.205050049E1
3.488455000E1,-3.971241760E0,-2.085463257E0,1.024260040E1,1.118171638E1
3.508494196E1,2.444416809E-1,2.489622803E0,4.863386536E0,5.469049463E0
3.528533396E1,-1.020128632E0,3.011437683E0,1.402987473E1,1.438564577E1
3.548572596E1,1.028361511E-1,2.994073792E0,4.699028320E0,5.572783891E0
3.568611696E1,-4.105961609E-1,3.228486328E0,5.734425201E0,6.593583667E0
3.588650896E1,-2.160008240E-1,3.433709564E0,1.342962296E1,1.386332537E1
3.608690071E1,-3.562591553E-1,1.620530090E0,8.420589294E0,8.582503273E0
3.628729271E1,7.979905701E-1,2.869981842E0,9.488468628E0,9.945080273E0
3.648768371E1,-6.691085815E-2,2.501897278E0,1.316347641E1,1.339929395E1
3.668807571E1,-3.403921509E-1,1.932930450E0,9.853409729E0,1.004697816E1
3.688846771E1,2.353106689E-1,2.926564178E0,1.013632141E1,1.055296929E1
3.708885883E1,-1.333277435E0,5.848338318E-1,1.342034225E1,1.349908314E1
3.728925083E1,2.733316040E-1,1.462309113E0,8.583750000E0,8.711706042E0
3.748964183E1,-2.731819153E-1,2.792592773E0,1.014485367E1,1.052574267E1
3.769003283E1,4.219725037E-1,1.624721375E0,5.244344330E0,5.506444206E0
3.789042483E1,6.351292419E-1,3.381468201E0,5.398074646E0,6.401322225E0
3.809081646E1,-3.143463135E-1,1.380579071E0,1.262774048E1,1.270687380E1
3.829120746E1,-5.345384216E-1,2.880160675E0,3.748504944E0,4.757346545E0
3.849159946E1,5.712121582E-1,3.086581421E0,6.897805939E0,7.578455975E0
3.869199046E1,1.225800934E0,2.631827087E0,1.246143631E1,1.279517474E1
3.889238146E1,6.138734436E-1,1.462159424E0,8.296796722E0,8.446986838E0
3.909277221E1,2.222877502E-1,2.079176331E0,1.007285339E1,1.028760232E1
3.929316321E1,1.147663422E0,1.805844727E0,1.386237305E1,1.402653175E1
3.949355421E1,-5.927673340E-2,4.002676392E-1,1.109926895E1,1.110664212E1
3.969394521E1,-8.725355530E-1,2.846181335E0,9.815089417E0,1.025660990E1
3.989433621E1,-5.173242188E-1,-1.451082458E0,1.419079010E1,1.427416507E1
4.009472683E1,-1.847158813E-1,2.074386292E0,5.498216400E0,5.879420212E0
4.029511783E1,5.777984619E-2,2.572550354E0,1.100107315E1,1.129800709E1
4.049550883E1,-1.535207520E0,9.654922485E-1,5.083728333E0,5.397530099E0
4.069589983E1,2.139051819E-1,2.736609192E0,4.978646851E0,5.685218532E0
4.089628983E1,1.420545959E-1,2.146236877E0,1.585637650E1,1.600159954E1
4.109668063E1,1.721420288E-2,1.284628601E0,6.679709473E0,6.802138312E0
4.129707163E1,-2.716850281E-1,2.501148834E0,6.785988464E0,7.237347420E0
4.149746163E1,1.751358032E-1,2.915337524E0,1.129401398E1,1.166553116E1
4.169785263E1,-2.050735474E-2,1.219514008E0,8.857081604E0,8.940667173E0
4.189824263E1,5.632786560E-1,3.212769012E0,8.275989990E0,8.895570689E0
4.209863396E1,2.007774811E0,1.167572021E0,1.399769165E1,1.418907170E1
4.229902396E1,-5.533992004E-1,1.698966980E0,8.791967010E0,8.971701254E0
4.249941496E1,4.221221924E-2,1.895957336E0,1.098715210E1,1.114961647E1
4.269980496E1,-2.657573547E0,-1.212478638E0,1.412851959E1,1.442733057E1
4.290019496E1,1.098116455E0,2.623444519E0,6.420448608E0,7.022142211E0
4.310058483E1,-1.170116730E0,2.255210266E0,1.391221939E1,1.414231222E1
4.330097583E1,2.565664673E-1,1.125359802E0,4.094435577E0,4.254017364E0
4.350136583E1,-2.890489197E-1,2.749781799E0,5.706882477E0,6.341400226E0
4.370175583E1,6.364764404E-1,2.772235107E0,1.220112762E1,1.252828420E1
4.390214583E1,4.852908325E-1,1.706601105E0,8.751251678E0,8.929300110E0
4.410253600E1,6.161187744E-1,3.588338013E0,7.829169159E0,8.634330417E0
4.430292600E1,1.258732452E0,2.017354889E0,1.272788223E1,1.294809307E1
4.450331600E1,-5.495072937E-1,9.940827942E-1,9.573791199E0,9.640935472E0
4.470370600E1,4.815486145E-1,2.653531952E0,9.894873505E0,1.025581019E1
4.490409500E1,1.009500732E0,2.945424957E0,1.402807846E1,1.436946781E1
4.510448546E1,-4.954696655E-1,7.539820862E-1,9.643695831E0,9.685806547E0
4.530487546E1,-8.029302979E-1,3.058439941E0,1.042028091E1,1.088949063E1
4.550526546E1,-1.206042023E0,-1.509910126E0,1.572569824E1,1.584398786E1
4.570565446E1,-3.384461975E-1,2.778522034E0,6.945257263E0,7.488079124E0
4.590604446E1,7.259902954E-2,3.420387268E0,9.829309845E0,1.040767273E1
4.610643271E1,-2.563119965E0,-1.026714935E0,9.289831696E0,9.691475659E0
4.630682271E1,1.323248291E-1,2.317181396E0,6.023474121E0,6.455159175E0
4.650721171E1,3.275189209E-1,3.063679047E0,1.346165634E1,1.380976428E1
4.670760171E1,1.079105988E0,1.703008575E0,7.066654816E0,7.348626962E0
4.690799071E1,8.183482361E-1,2.464924164E0,7.744595032E0,8.168494180E0
4.710838063E1,3.210823059E-1,1.839824066E0,1.306438248E1,1.319720182E1
4.730876963E1,-7.926017761E-1,1.836081848E0,6.839427338E0,7.125810862E0
4.750915863E1,8.686436462E-1,3.104244690E0,6.864874420E0,7.584021208E0
4.770954763E1,-1.640588379E-1,2.386936340E0,1.248583557E1,1.271300398E1
4.790993763E1,1.670526123E-1,1.566043396E0,7.004683685E0,7.179553748E0
4.811032758E1,7.331753540E-1,2.891686707E0,8.418942719E0,8.931852809E0
4.831071658E1,-3.293151855E-1,3.029250641E0,1.262444733E1,1.298697341E1
4.851110558E1,-2.842588806E-1,6.953041077E-1,1.059781174E1,1.062439949E1
4.871149458E1,-3.468287659E-1,2.369871826E0,9.657616882E0,9.950183240E0
4.891188358E1,-8.672964478E-1,3.809577942E-1,1.392658951E1,1.395876883E1
4.911227200E1,6.271957397E-1,2.505489807E0,8.464897156E0,8.850160311E0
4.931266100E1,3.540138245E-1,2.196831665E0,1.109896957E1,1.131982865E1
4.951304900E1,-1.442999268E-1,5.544470215E-1,1.513308060E1,1.514392163E1
4.971343800E1,-3.080593872E-1,1.497186584E0,7.316335602E0,7.474304977E0
4.991382700E1,-1.635798340E0,3.859573975E0,1.011641281E1,1.095052308E1
5.011421513E1,-4.733157349E-1,-1.129850464E0,1.174951675E1,1.181320167E1
5.031460412E1,-5.087919617E-1,2.960244141E0,6.275849304E0,6.957600098E0
5.051499313E1,8.921447754E-2,3.679199066E0,1.066322571E1,1.128046309E1
5.071538112E1,-2.976859589E0,-1.583556976E0,1.054362442E1,1.106965951E1
5.091577013E1,6.755451965E-1,3.023712158E0,6.418951721E0,7.127561836E0
5.111615788E1,-9.068142700E-1,3.277584229E0,1.179786621E1,1.227821313E1
5.131654588E1,1.092727661E-2,8.845106506E-1,4.773573303E0,4.854840943E0
5.151693488E1,-7.375163269E-1,2.759960632E0,5.861061859E0,6.520226924E0
5.171732288E1,3.861968994E-2,2.398911438E0,1.203257812E1,1.226944187E1
5.191771088E1,-2.084864502E0,6.746470642E-1,4.417314148E0,4.930970790E0
5.211810058E1,4.246669006E-1,3.248843994E0,5.184319153E0,6.132902604E0
5.231848858E1,-3.077600098E-1,3.092419281E0,1.276754974E1,1.314032342E1
5.251887658E1,1.049317932E0,2.516716461E0,3.960913239E0,4.808717454E0
5.271926458E1,-1.930984497E-1,2.249372406E0,7.704328766E0,8.028302745E0
5.291965258E1,-1.126407623E0,1.744023285E0,1.260962814E1,1.277940270E1
5.312004046E1,-9.639953613E-1,2.073039093E0,6.653663635E0,7.035482777E0
5.332042846E1,6.402186584E-1,3.586990814E0,6.696624298E0,7.623723501E0
5.352081646E1,-9.547146606E-1,2.498903503E0,1.290676025E1,1.318106441E1
5.372120446E1,6.620732117E-1,9.958790588E-1,7.852520599E0,7.943059599E0
5.392159246E1,-5.051994324E-1,1.803898773E0,1.141271713E1,1.156543945E1
5.412197921E1,4.507127380E-1,3.845652924E0,1.325343933E1,1.380745605E1
5.432236721E1,-4.569996643E-1,1.384321289E0,8.477920074E0,8.602344036E0
5.452275521E1,-4.936734009E-1,2.554587708E0,9.938582611E0,1.027351235E1
5.472314221E1,3.462300110E-1,-6.494993591E-1,1.463162338E1,1.465012380E1
5.492353021E1,-3.547622681E-2,2.396666107E0,9.191037140E0,9.498443593E0
5.512391788E1,-4.944218445E-1,2.471660156E0,1.002510269E1,1.033712924E1
5.532430487E1,-3.463796997E0,-1.275048523E0,1.149594406E1,1.207395413E1
5.552469288E1,4.403842163E-1,2.503693542E0,6.339467010E0,6.830172881E0
5.572507987E1,-1.531165924E0,2.426304474E0,1.356688751E1,1.386693403E1
5.592546788E1,-5.123844910E-1,-2.233355713E-1,6.637796631E0,6.661288221E0
5.612585508E1,-8.045768738E-1,3.065026245E0,3.936813354E0,5.053734185E0
5.632624308E1,-1.269809418E0,1.813478851E0,1.312934738E1,1.331468678E1
5.652663008E1,-2.047741699E0,1.291065216E0,5.604944458E0,6.105366315E0
5.672701708E1,6.150709534E-1,2.953059082E0,5.218298492E0,6.027396567E0
5.692740408E1,1.779499512E0,1.201251984E0,1.517020340E1,1.532138036E1
5.712779138E1,2.990780640E-1,1.349743195E0,7.608378296E0,7.732960279E0
5.732817838E1,-4.986131287E-1,1.348695374E0,1.118519028E1,1.127723706E1
5.752856538E1,-2.142344971E0,-1.869163055E0,1.690928696E1,1.714664392E1
5.772895238E1,-4.346960449E-1,1.652713165E0,9.355844421E0,9.510638585E0
5.792933938E1,-1.228645020E0,2.530188446E0,1.034139496E1,1.071708318E1
5.812972696E1,-2.265239410E0,-1.968406677E0,1.289568329E1,1.324026366E1
5.833011496E1,8.021818542E-1,2.763104095E0,7.048991547E0,7.613574837E0
5.853050096E1,-5.619314575E-1,2.493215332E0,1.161494659E1,1.189280766E1
5.873088796E1,-3.373235321E0,-1.112037506E0,6.212231598E0,7.155918206E0
5.893127496E1,1.294807434E-1,2.922223206E0,5.856870575E0,6.546685166E0
5.913166183E1,-7.039860535E-1,2.809058533E0,1.350686234E1,1.381382410E1
5.933204883E1,1.629511414E0,2.785557404E0,5.296136627E0,6.201911050E0
5.953243583E1,-5.763015747E-2,2.644850006E0,7.941136322E0,8.370197063E0
5.973282283E1,-2.571652222E-1,3.464844818E0,1.279808624E1,1.326130819E1
5.993320883E1,-4.805007935E-2,1.638343048E0,9.633516998E0,9.771956125E0
6.013359600E1,1.173260193E0,3.577710114E0,8.105793915E0,8.937586035E0
6.033398300E1,6.691085815E-1,2.437980194E0,1.081486038E1,1.110642421E1
6.053436900E1,4.787045288E-1,2.102228394E0,8.676257629E0,8.940132476E0
6.073475600E1,-4.267625427E-1,2.491119690E0,1.210233307E1,1.236342466E1
6.093514200E1,-1.441203003E0,-1.157093811E-1,1.407912231E1,1.415316713E1
6.113552875E1,-1.219514008E0,6.614744568E-1,6.532864838E0,6.678554174E0
6.133591475E1,-1.017134857E0,3.047213287E0,1.171299271E1,1.214554529E1
6.153630175E1,-1.459764404E0,-3.341052246E-1,9.068292389E0,9.191107946E0
6.173668775E1,-5.514532471E-1,1.988165588E0,5.048401794E0,5.453738513E0
6.193707375E1,-7.797285461E-1,3.253634033E0,1.174951675E1,1.221659752E1
6.213746063E1,-4.000880127E0,-1.068178711E0,8.262068939E0,9.241743921E0
6.233784663E1,-4.805007935E-2,2.632725220E0,5.395679626E0,6.003907854E0
6.253823262E1,-1.190025330E0,3.122357025E0,1.579156128E1,1.614121065E1
6.273861863E1,1.425036621E-1,2.226170654E0,3.031945038E0,3.764151138E0
6.293900463E1,-7.940986633E-1,3.564387817E0,5.388793945E0,6.509573979E0
6.313939171E1,-1.299747162E0,2.798430634E0,1.344084961E1,1.379046754E1
6.333977771E1,-1.274300079E0,1.409468994E0,3.503015442E0,3.985167590E0
6.354016371E1,3.546125793E-1,3.934268646E0,7.300917664E0,8.301061293E0
6.374054971E1,-8.238867188E-1,3.902983704E0,1.344578934E1,1.402502485E1
6.394093571E1,-1.061442719E0,1.324445801E0,7.076384583E0,7.277089809E0
6.414132088E1,-1.408570862E-1,2.283202057E0,9.893226929E0,1.015424992E1
6.434170688E1,5.707630920E-1,4.520599365E0,1.284523819E1,1.362944362E1
6.454209288E1,1.235979767E0,2.226020966E0,9.032965851E0,9.384950047E0
6.474247887E1,-9.122030640E-1,2.795287170E0,1.111723160E1,1.149950361E1
6.494286488E1,-4.536017303E0,-2.462229767E0,1.219933136E1,1.324619621E1
6.514325008E1,-8.143066406E-1,1.924847260E0,5.354215851E0,5.747674282E0
6.534363608E1,-9.186396790E-1,2.297272797E0,1.320494019E1,1.343472391E1
6.554402208E1,-3.459156647E0,-1.150208130E0,6.936575317E0,7.836122803E0
6.574440708E1,2.888992310E-1,2.893183594E0,4.255800018E0,5.154202932E0
6.594479308E1,-2.715802460E0,3.684587860E0,1.579605194E1,1.644588178E1
6.614517846E1,-3.152444458E-1,2.130669250E0,5.292095032E0,5.713615348E0
6.634556446E1,-1.102756805E0,3.197351074E0,6.299949188E0,7.150418606E0
6.654594946E1,-2.368374939E0,3.981121216E0,1.325328964E1,1.403952322E1
6.674633546E1,-1.567689972E0,9.391470337E-1,8.660540314E0,8.851248925E0
6.694672046E1,-2.132914581E0,3.680845642E0,1.097966766E1,1.177501810E1
6.714710488E1,-4.349205780E0,-9.937834167E-1,1.424422897E1,1.492652858E1
6.734748988E1,-1.824106750E0,2.157313843E0,6.791826324E0,7.355968548E0
6.754787588E1,-1.624122620E-1,2.952310638E0,1.239931549E1,1.274698162E1
6.774826087E1,-3.410058746E0,-1.167422333E0,1.211745163E1,1.264215209E1
6.794864588E1,-1.325194244E0,1.765428772E0,5.499563599E0,5.926050819E0
6.814903083E1,-2.005529480E0,4.286037140E0,1.357856323E1,1.437948686E1
6.834941583E1,-9.445358276E-2,1.840871887E0,4.352947998E0,4.727143647E0
6.854980083E1,-4.788542175E-1,3.579207001E0,5.147944794E0,6.288192086E0
6.875018583E1,-2.159110107E0,3.858975220E0,1.367810623E1,1.437511865E1
6.895057083E1,-1.365011444E0,1.541793823E0,8.900641022E0,9.135742719E0
6.915095583E1,1.332229614E-1,4.859794006E0,5.565875702E0,7.390150098E0
6.935134083E1,-1.210382996E0,1.028361511E0,1.322754318E1,1.332255430E1
6.955172583E1,-1.793270874E0,2.540666656E0,8.242609406E0,8.809734235E0
6.975211083E1,-2.745590515E0,1.953886871E0,1.166030228E1,1.213748699E1
6.995249483E1,-3.632496185E0,-1.666484528E0,1.508892242E1,1.560922097E1
7.015287983E1,-2.110311584E0,1.178948364E0,5.058281250E0,5.606205797E0
7.035326483E1,-2.502196655E0,3.719615021E0,1.409858185E1,1.479413851E1
7.055364883E1,-7.110214233E-1,8.900491333E-1,6.226452026E0,6.329805981E0
7.075403383E1,-1.208437042E0,4.266577606E0,4.718188477E0,6.474975448E0
7.095441883E1,-4.161496124E0,2.966231689E0,1.476739105E1,1.562665732E1
7.115480346E1,5.640270996E-1,4.522395630E0,4.117337952E0,6.141877613E0
7.135518846E1,2.200424194E-1,3.874243469E0,6.220763855E0,7.331854067E0
7.155557246E1,1.490899658E0,5.545068970E0,1.009291168E1,1.161195237E1
7.175595646E1,-1.754800873E0,1.869163055E0,8.534652100E0,8.911418691E0
7.195634146E1,-7.191046143E-1,2.666405182E0,1.060514648E1,1.095883023E1
7.215672450E1,-9.469308472E-1,2.677931213E-1,1.525073593E1,1.528245195E1
7.235710850E1,1.676513672E-1,2.126328278E0,5.572911072E0,5.967136394E0
7.255749350E1,-1.410666504E0,2.753074951E0,1.230381409E1,1.268673491E1
7.275787750E1,-1.259630585E0,-4.433779907E-1,8.652756500E0,8.755195504E0
7.295826150E1,-3.667373657E-2,3.328029327E0,5.829178162E0,6.712409568E0
7.315864533E1,-6.577322388E-1,2.186652832E0,1.144519958E1,1.167076072E1
7.335902933E1,-1.099912720E0,2.536924438E0,4.945116577E0,5.665683680E0
7.355941333E1,-6.430627441E-1,2.594255219E0,5.573509827E0,6.181237871E0
7.375979733E1,1.294508057E0,3.782035217E0,1.431113983E1,1.485894561E1
7.396018133E1,8.355624390E-1,1.261576538E0,8.637338562E0,8.768885755E0
7.416056613E1,-1.248403931E-1,2.266885986E0,1.038854691E1,1.063373236E1
7.436095013E1,1.147962799E0,4.231251068E0,1.279344589E1,1.352381462E1
7.456133412E1,-1.276844788E-1,7.556286621E-1,8.908125458E0,8.941027747E0
7.476171713E1,-8.807684326E-1,2.788401489E0,1.003992188E1,1.045710128E1
7.496210113E1,-2.042502594E0,-2.874173126E0,1.422611664E1,1.465657131E1
7.516248483E1,-1.070424042E0,1.693129120E0,6.746320953E0,7.037424263E0
7.536286783E1,-4.430786133E-1,2.792293396E0,1.104942261E1,1.140539175E1
7.556325183E1,-3.919299774E0,-1.762135620E0,1.295540909E1,1.364949293E1
7.576363583E1,-7.436535645E-1,1.475930786E0,6.104306030E0,6.324076567E0
7.596401883E1,-1.862876129E0,3.678600311E0,1.340791809E1,1.402763969E1
7.616440250E1,-5.818400574E-1,1.800605621E0,2.479743347E0,3.119270031E0
7.636478650E1,-7.864645386E-1,3.933520203E0,6.240073700E0,7.418195699E0
7.656516950E1,-2.105970612E0,1.544039154E0,1.365999390E1,1.390735785E1
7.676555350E1,-6.809339905E-1,2.660267944E0,4.178410950E0,4.999981470E0
7.696593650E1,1.080752563E-1,3.329376526E0,7.726033630E0,8.413561907E0
7.716631908E1,-2.960842896E-1,2.338586884E0,1.377660141E1,1.397681655E1
7.736670208E1,-9.780661011E-1,1.002465363E0,7.752229156E0,7.877728543E0
7.756708508E1,-1.144519958E0,2.336640930E0,1.165880539E1,1.194560839E1
7.776746908E1,-7.485932922E-1,6.197113037E-1,1.622535919E1,1.625443678E1
7.796785208E1,-5.715115356E-1,1.185384979E0,5.819747772E0,5.966676388E0
7.816823483E1,-1.787582703E0,3.181035004E0,1.300660263E1,1.350874338E1
7.836861783E1,-1.954485626E0,-1.148860931E0,1.083237396E1,1.106707826E1
7.856900083E1,-1.324894867E0,2.930755463E0,6.130501556E0,6.922985145E0
7.876938383E1,-1.799258423E-1,3.155887299E0,1.005773483E1,1.054277136E1
7.896976583E1,-3.207529907E0,-7.991880798E-1,7.553592224E0,8.245223174E0
7.917014846E1,3.179388428E-1,3.538341980E0,3.634292450E0,5.082226942E0
7.937053146E1,2.002535706E0,4.537514191E0,1.232716553E1,1.328752024E1
7.957091446E1,4.541555786E-1,1.504521332E0,8.837771759E0,8.976416400E0
7.977129746E1,-6.230044556E-1,2.002984772E0,8.743916931E0,8.992005663E0
7.997167946E1,-2.772235107E-1,2.963387604E0,1.294687683E1,1.328458274E1
8.017206271E1,-7.688012695E-1,9.415420532E-1,1.015982254E1,1.023227985E1
8.037244471E1,-1.859433289E0,3.224444733E0,8.636141052E0,9.404119750E0
8.057282771E1,-3.838617554E0,-4.130660248E0,1.537827072E1,1.637951615E1
8.077320971E1,-1.930834808E0,1.889221344E0,6.951843567E0,7.458244386E0
8.097359271E1,-1.209484863E0,3.653153229E0,1.201162170E1,1.261298688E1
8.117397533E1,-2.989583130E0,-7.897576904E-1,6.659351807E0,7.342226569E0
8.137435833E1,-8.821156311E-1,3.016078033E0,4.731510773E0,5.679969092E0
8.157474033E1,-1.499282227E0,3.327131195E0,1.356958191E1,1.405173307E1
8.177512233E1,8.785231018E-1,2.608775024E0,6.741081848E0,7.281462384E0
8.197550433E1,-9.138496399E-1,2.425855408E0,8.548273773E0,8.932686053E0
8.217588696E1,8.860075378E-1,3.882027283E0,1.396461044E1,1.452120828E1
8.237626896E1,-1.222657471E0,3.112028503E-1,7.631430359E0,7.735015697E0
8.257665096E1,-1.362017670E0,2.805765381E0,1.223211319E1,1.262347039E1
8.277703296E1,-2.624192963E0,1.945953369E-2,7.214247894E0,7.676727171E0
8.297741496E1,-1.224453735E0,3.281027069E0,4.221072235E0,5.484694740E0
8.317779671E1,-9.900411987E-1,2.402503967E0,1.230680786E1,1.257814480E1
8.337817871E1,-2.890040131E0,4.357438660E-1,3.618724823E0,4.651599082E0
8.357856071E1,-5.029541016E-2,3.162174225E0,5.784720612E0,6.592789092E0
8.377894271E1,2.859054565E-2,3.228037262E0,1.535177582E1,1.568751296E1
8.397932371E1,-4.689747620E-1,2.646795959E0,5.429060211E0,6.058065777E0
8.417970571E1,-2.161505127E-1,2.993175659E0,8.918004913E0,9.409390693E0
8.438008771E1,-1.073118439E0,3.867956543E0,1.340507401E1,1.399316548E1
8.458046971E1,-5.713618469E-1,9.993218994E-1,9.143136749E0,9.215315960E0
8.478085071E1,1.496887207E-1,3.670966187E0,9.322463837E0,1.002031594E1
8.498123271E1,-2.328408051E0,-2.020947418E0,1.676648392E1,1.704760087E1
8.518161421E1,-1.719025269E0,1.485361176E0,6.607260132E0,6.986932957E0
8.538199621E1,-2.627935181E0,2.158211975E0,1.339699081E1,1.382184087E1
8.558237721E1,-4.207450562E0,-1.810185699E0,9.614207153E0,1.064952542E1
8.578275921E1,-7.300318909E-1,2.089654541E0,5.065765686E0,5.528253309E0
8.598314021E1,-2.814147949E0,1.647773438E0,1.602013596E1,1.634868013E1
8.618352083E1,8.113128662E-2,2.428549805E0,2.750230865E0,3.669905483E0
8.638390183E1,-1.501228180E0,3.242557068E0,4.866230621E0,6.037223107E0
8.658428383E1,-1.427132263E0,3.907324677E0,1.403226974E1,1.463586304E1
8.678466483E1,-1.404229889E0,9.386979675E-1,9.095835114E0,9.251336761E0
8.698504583E1,1.276844788E-1,3.467239838E0,8.614885254E0,9.287319493E0
8.718542663E1,-3.936663666E0,-2.307152252E0,1.519385422E1,1.586422007E1
8.738580763E1,-6.973997498E-1,1.882784729E0,6.158792725E0,6.477806154E0
8.758618863E1,-2.968926086E0,2.893183594E0,1.320389236E1,1.383935717E1
8.778656963E1,-3.455713806E0,-1.398691406E0,8.598120117E0,9.371550838E0
8.798695063E1,-3.336561584E-1,2.757565613E0,4.412973175E0,5.214386520E0
8.818733163E1,-2.339634705E0,3.684887238E0,1.623523865E1,1.681175953E1
8.838771263E1,7.586224365E-1,2.541265411E0,3.147953796E0,4.116205898E0
8.858809363E1,-1.353784790E0,3.180286560E0,7.251520386E0,8.033150302E0
8.878847362E1,-2.689906311E0,3.773952026E0,1.308264450E1,1.387926140E1
8.898885463E1,-1.613644409E-1,1.357826385E0,8.541837158E0,8.650590327E0
8.918923658E1,-9.931846619E-1,2.542762299E0,1.093745544E1,1.127297598E1
8.938961658E1,-5.146298218E-1,-8.978329468E-1,1.545296539E1,1.548757848E1
8.958999758E1,-7.015910339E-1,1.983974304E0,6.656208344E0,6.980937869E0
8.979037758E1,-1.466650085E0,2.524799652E0,1.121916962E1,1.159290484E1
8.999075858E1,-4.420906677E0,-3.231779480E0,1.487965759E1,1.585537841E1
9.019113796E1,-1.346599731E0,1.703307953E0,6.655609589E0,7.000837651E0
9.039151896E1,-7.688012695E-1,2.698288879E0,1.287427780E1,1.317645048E1
9.059189896E1,1.881587219E-1,2.103425903E0,6.588698730E0,6.918869503E0
9.079227896E1,-1.281934204E0,3.149899750E0,3.741020508E0,5.055735177E0
9.099265996E1,-2.284549255E0,4.357139282E0,1.231878296E1,1.326484985E1
9.119304038E1,5.364843750E-1,3.209775238E0,6.464157715E0,7.237113204E0
9.139342038E1,1.294807434E-1,3.589834900E0,7.976313171E0,8.747871266E0
9.159380038E1,9.415420532E-2,5.923182678E-1,1.664808014E1,1.665887986E1
9.179418038E1,-1.003064117E0,7.271878052E-1,7.637417908E0,7.737253519E0
9.199456038E1,-1.196461945E0,2.459385681E0,1.293415329E1,1.322015206E1
9.219494000E1,-4.213138733E0,-2.819836121E0,1.343905334E1,1.436350126E1
9.239532000E1,-1.081501007E0,1.672921143E0,5.363047485E0,5.721065277E0
9.259570000E1,-2.218985596E0,2.030078430E0,1.556822571E1,1.585606405E1
9.279608000E1,1.024768982E0,3.712579651E0,5.910309448E0,7.054442352E0
9.299646000E1,-1.202150116E0,2.913541260E0,5.024002533E0,5.930808463E0
9.319684000E1,-2.220632172E0,3.692820740E0,1.286858963E1,1.357087806E1
9.339721900E1,-1.548529816E0,1.569486237E0,7.087760925E0,7.422774857E0
9.359759900E1,3.234773254E-1,3.413950653E0,8.588540039E0,9.247849298E0
9.379797900E1,-2.052232361E0,1.144519958E0,1.543230835E1,1.561018016E1
9.399835800E1,9.849517822E-2,2.046693878E0,5.983806610E0,6.324918867E0
9.419873746E1,-1.794169006E0,2.680176544E0,1.226938568E1,1.268622141E1
9.439911646E1,-2.064057770E0,-1.616937561E0,1.554457489E1,1.576415650E1
9.459949546E1,-2.076631622E0,5.948629761E-1,7.521558838E0,7.825605932E0
9.479987546E1,-5.601351929E-1,3.930676117E0,1.184546722E1,1.249316053E1
9.500025508E1,-9.101074219E-2,9.840536499E-1,7.066654816E0,7.135422540E0
9.520063508E1,-1.760938110E0,3.419040070E0,4.243226166E0,5.726753558E0
9.540101408E1,-1.576970673E0,5.618416443E0,1.245365250E1,1.375306876E1
9.560139308E1,-1.138981476E0,2.565365295E0,4.963079224E0,5.701800881E0
9.580177208E1,3.421884155E-1,4.021986237E0,6.694528656E0,7.817300053E0
9.600215108E1,-1.140628052E-1,4.798870697E0,1.258448044E1,1.346890189E1
9.620253008E1,-1.364562378E0,1.284029846E0,8.266409912E0,8.476101460E0
9.640290908E1,-1.977986755E0,3.199895782E0,1.024245071E1,1.091144176E1
9.660328808E1,-3.446882172E0,1.152603149E-2,1.491019409E1,1.530343156E1
9.680366708E1,-3.805087280E-1,1.926942902E0,5.620811462E0,5.954109281E0
9.700404562E1,-3.731739807E-1,3.357667694E0,1.493549149E1,1.531280827E1
9.720442463E1,-1.475930786E-1,2.210303650E0,6.638096008E0,6.997967173E0
9.740480363E1,-9.207353210E-1,4.265529785E0,3.826492767E0,5.803838797E0
9.760518263E1,-3.107537842E0,3.230581970E0,1.344219681E1,1.416990142E1
9.780556163E1,-1.138981476E0,3.169658661E0,4.549040222E0,5.660192733E0
9.800593988E1,-1.240919495E-1,3.293301544E0,6.032904510E0,6.874385115E0
9.820631888E1,-4.692741394E-1,3.316652985E0,1.405113052E1,1.444488402E1
9.840669788E1,-1.106948090E0,1.743424530E0,7.962541809E0,8.225991443E0
9.860707588E1,-1.292562103E0,2.286644897E0,9.493558044E0,9.850233805E0
9.880745487E1,7.170089722E-2,6.854246521E-1,1.664942734E1,1.666368443E1
9.900783408E1,-1.531914368E0,4.236190796E-2,7.232060852E0,7.392649074E0
9.920821208E1,-2.307451630E0,2.942431183E0,1.189037384E1,1.246447850E1
9.940859108E1,-9.530680847E-1,-1.550924835E0,9.116342468E0,9.296311452E0
9.960896908E1,-1.021026764E0,2.908302155E0,5.474864960E0,6.282902466E0
9.980934708E1,-2.207160187E0,2.489173737E0,1.362242203E1,1.402276449E1
1.000097255E2,-3.010090485E0,2.173779602E0,2.872975616E0,4.694672659E0
1.002101035E2,1.468446350E-1,2.694995728E0,6.693630524E0,7.217288612E0
1.004104815E2,-1.717378693E0,3.919898529E0,1.207059906E1,1.280680896E1
1.006108605E2,-1.228794708E0,2.333946533E0,7.100334778E0,7.574430461E0
1.008112385E2,4.225712585E-1,3.071013794E0,9.455537109E0,9.950722296E0
1.010116174E2,1.084644470E0,5.057532806E0,9.121282196E0,1.048584191E1
1.012119954E2,-9.699829102E-1,1.235979767E0,5.758225708E0,5.968724833E0
1.014123734E2,-7.185058594E-3,4.553231506E0,1.061936691E1,1.155434647E1
1.016127514E2,-3.108735352E0,-1.360071716E0,1.177167068E1,1.225096981E1
1.018131294E2,-4.822970581E-1,3.369642792E0,3.249143372E0,4.705744962E0
1.020135070E2,-1.417552185E0,3.489693146E0,1.262564484E1,1.317551972E1
1.022138850E2,-9.430389404E-2,1.671124878E0,6.104755096E0,6.330054215E0
1.024142630E2,-1.336420898E0,3.882027283E0,6.616391144E0,7.786705877E0
1.026146410E2,-1.146765289E0,3.264112244E0,1.199335968E1,1.248239463E1
1.028150180E2,-6.451583862E-1,1.323847046E0,9.536518707E0,9.649559026E0
1.030153963E2,-2.384541321E-1,2.800526276E0,9.085805969E0,9.510608703E0
1.032157743E2,9.883946228E-1,4.202660522E0,1.373753265E1,1.439996815E1
1.034161523E2,-6.905140686E-1,1.033750305E0,7.709418182E0,7.809006216E0
1.036165293E2,-2.106868744E0,2.432292023E0,1.044827271E1,1.093258171E1
1.038169073E2,-2.289788361E0,-1.448238373E0,1.287293060E1,1.315495600E1
1.040172845E2,-2.319127350E0,2.495760040E0,4.193529510E0,5.403041699E0
1.042176625E2,-8.604107666E-1,4.083059235E0,1.116064133E1,1.191518335E1
1.044180405E2,-2.781066742E0,1.039737854E0,4.948559418E0,5.770929504E0
1.046184175E2,-5.426216125E-1,2.881657562E0,5.730682983E0,6.437322112E0
1.048187945E2,-1.637594604E0,3.283721466E0,1.341630066E1,1.390904979E1
1.050191716E2,4.029620361E-1,2.943329315E0,6.432274017E0,7.085175714E0
1.052195486E2,-7.247927856E-1,3.250041504E0,8.259973297E0,8.905911140E0
1.054199256E2,9.476792908E-1,4.648283844E0,1.229767685E1,1.318095196E1
1.056203036E2,-1.997745667E0,-1.287322998E-2,7.480095062E0,7.742284909E0
1.058206806E2,-1.378333740E0,8.313711548E-1,1.274749146E1,1.284871668E1
1.060210583E2,-2.084116058E0,-2.630479889E0,1.427536423E1,1.466454868E1
1.062214353E2,-9.494755554E-1,2.163002014E0,5.085524597E0,5.607373893E0
1.064218123E2,-1.061891785E0,2.606679382E0,1.612776215E1,1.637153332E1
1.066221893E2,-1.296304321E0,2.164798279E0,7.251370697E0,7.677833905E0
1.068225663E2,3.167413330E-1,4.068689117E0,5.681884460E0,6.995596274E0
1.070229435E2,9.154962158E-1,4.913532257E0,1.207613754E1,1.306958418E1
1.072233205E2,-9.083111572E-1,1.129551086E0,8.890761566E0,9.008138323E0
1.074236975E2,-5.346881104E-1,3.060535583E0,8.619974670E0,9.162790664E0
1.076240745E2,-5.328918457E-2,-1.134041748E0,2.100985977E1,2.104051088E1
1.078244515E2,-1.959425354E-1,1.126856689E0,5.618266754E0,5.733508594E0
1.080248278E2,1.116677856E0,4.230502625E0,1.296693512E1,1.368523030E1
1.082252048E2,-1.533860321E0,-2.613565063E-1,6.768325195E0,6.944872976E0
1.084255808E2,-4.516108704E-1,2.711611176E0,6.086044006E0,6.678077507E0
1.086259578E2,-3.747756500E0,1.334924011E0,1.668460419E1,1.715236770E1
1.088263348E2,1.225800934E0,2.622247009E0,4.293521576E0,5.178136231E0
1.090267111E2,2.093845825E0,3.920197906E0,1.084404968E1,1.171945201E1
1.092270881E2,-1.110839996E0,-6.873706055E-1,1.438957672E1,1.444874950E1
1.094274641E2,-1.367855530E0,1.917362823E0,5.113217010E0,5.629591206E0
1.096278411E2,-1.318308563E0,4.071383514E0,1.342872482E1,1.409413891E1
1.098282171E2,-3.115022278E0,-6.313870239E-1,7.557484131E0,8.198632798E0
1.100285938E2,-1.240919495E0,2.771636353E0,4.788242798E0,5.670019255E0
1.102289698E2,6.737489319E-1,5.333858185E0,1.028196854E1,1.160270907E1
1.104293458E2,-6.878196716E-1,1.581161957E0,7.623496857E0,7.816065081E0
1.106297228E2,-9.280700684E-2,3.009940796E0,6.825356598E0,7.460150764E0
1.108300988E2,3.552113342E-1,4.477638702E0,1.249766098E1,1.328032204E1
1.110304746E2,-1.149010620E0,1.276395721E0,8.466244354E0,8.638674951E0
1.112308506E2,-3.411705322E0,2.139051819E0,9.933493195E0,1.071865490E1
1.114312266E2,-2.736459503E0,-1.797312469E0,1.670196808E1,1.701982022E1
1.116316036E2,-4.219725037E-1,2.476001129E0,3.955823822E0,4.685849389E0
1.118319796E2,-1.837429047E0,-8.502319336E-2,1.881407593E1,1.890377813E1
1.120323557E2,-3.292104034E0,7.403604126E-1,5.112917633E0,6.126010875E0
1.122327317E2,4.790039062E-1,2.279310150E0,9.645641785E0,9.922857700E0
1.124331077E2,-5.031037903E-1,4.203558655E0,1.059302170E1,1.140767844E1
1.126334837E2,-1.685794373E0,1.848356323E0,5.986950073E0,6.488597302E0
1.128338587E2,1.725910950E-1,3.271147614E0,8.670719147E0,9.268849169E0
1.130342348E2,-1.504072266E0,1.000369720E0,1.454719894E1,1.465892118E1
1.132346108E2,-1.413061523E0,8.861572266E-2,7.258705444E0,7.395498654E0
1.134349868E2,-1.134041748E0,2.652633820E0,1.318188812E1,1.349387607E1
1.136353628E2,-1.586999817E0,-1.093775482E0,1.289433609E1,1.303759243E1
1.138357378E2,-1.830693054E0,9.210346985E-1,5.901328125E0,6.247032545E0
1.140361144E2,-2.315085754E0,2.916984100E0,1.325254120E1,1.376583693E1
1.142364894E2,-3.698658600E0,7.348219299E-1,7.472311249E0,8.369914821E0
1.144368654E2,4.668791199E-1,3.432512054E0,5.004842377E0,6.086753020E0
1.146372414E2,-1.768871613E0,5.462889862E0,1.243853394E1,1.369997076E1
1.148376164E2,-1.206491089E0,1.403631134E0,7.479945374E0,7.705542414E0
1.150379913E2,-2.076182556E-1,2.919828186E0,7.347021790E0,7.908680747E0
1.152383673E2,-1.337468719E0,5.382207642E0,1.176388687E1,1.300561479E1
1.154387422E2,3.236270142E-1,7.300318909E-1,8.614735565E0,8.651667461E0
1.156391182E2,-2.658471680E-1,3.899091797E0,1.042836411E1,1.113662289E1
1.158394933E2,-2.883603516E0,-1.157093811E0,1.223525665E1,1.262361045E1
1.160398680E2,-5.379812622E-1,2.792443085E0,3.873794403E0,4.805563994E0
1.162402430E2,-1.673220520E0,2.939587097E0,1.318308563E1,1.361009133E1
1.164406190E2,-1.544937286E0,1.810634766E0,4.942871246E0,5.486092018E0
1.166409940E2,-1.583706665E-1,2.994672546E0,5.138813782E0,5.949836301E0
1.168413690E2,-2.760260010E-1,3.691623230E0,1.407328445E1,1.455203105E1
1.170417445E2,-3.718267822E-1,2.386936340E0,7.157964935E0,7.554613310E0
1.172421195E2,-1.027164001E0,2.883902893E0,8.236621857E0,8.787144098E0
1.174424945E2,8.735833740E-1,4.868475952E0,1.307920166E1,1.398323003E1
1.176428695E2,-2.254312134E-1,9.689350891E-1,7.461833038E0,7.527855387E0
1.178432445E2,-6.132746887E-1,3.922443237E0,1.218136871E1,1.281200260E1
1.180436188E2,-7.009922791E-1,2.144440613E0,6.753506012E0,7.120383358E0
1.182439928E2,-1.510359192E-1,3.063529358E0,5.097200317E0,5.948905366E0
1.184443678E2,-2.011666718E0,3.797752533E0,1.348321152E1,1.415156246E1
1.186447428E2,-5.520520020E-1,3.240012360E0,5.612877960E0,6.504370877E0
1.188451178E2,-4.171824646E-1,3.205434265E0,5.779182129E0,6.621766842E0
1.190454921E2,-1.617985382E0,5.622607727E0,1.289732986E1,1.416236958E1
1.192458671E2,-9.913883972E-1,1.789528656E0,7.671846313E0,7.939930077E0
1.194462421E2,-1.278191986E0,4.086801453E0,7.194638672E0,8.372487473E0
1.196466161E2,-2.530188446E0,1.836081848E0,1.411025757E1,1.445241913E1
1.198469911E2,-6.251000977E-1,1.988764343E0,5.193899231E0,5.596652836E0
1.200473655E2,-8.184979248E-1,2.242786102E0,1.415965485E1,1.435952136E1
1.202477405E2,4.981640625E-1,4.084705811E0,4.213138733E0,5.889272194E0
1.204481145E2,-8.199948120E-1,2.863994293E0,3.278332672E0,4.429708784E0
1.206484885E2,-3.064726868E0,3.235072632E0,1.587763229E1,1.649113256E1
1.208488635E2,9.225315857E-1,2.649340668E0,9.459878082E0,9.867084870E0
1.210492368E2,2.836601257E-1,2.780917053E0,4.620292053E0,5.400098275E0
1.212496108E2,2.460882568E-1,4.496050415E0,1.205563019E1,1.286908109E1
1.214499858E2,3.588038635E-1,2.881058807E0,5.672603760E0,6.372415043E0
1.216503598E2,-1.399888916E0,2.511926422E0,1.304058197E1,1.335388488E1
1.218507338E2,-3.423680420E0,-6.899153137E-1,1.515029480E1,1.554763658E1
1.220511076E2,-8.161029053E-1,2.425256653E0,4.099225616E0,4.832343576E0
1.222514816E2,-1.545536041E0,2.605332184E0,1.566926559E1,1.595939603E1
1.224518556E2,-2.297721863E-1,1.520837402E0,8.634195099E0,8.770123526E0
1.226522296E2,-1.573228455E-1,3.166215820E0,6.069428558E0,6.847454719E0
1.228526036E2,-9.348060608E-1,4.325854340E0,1.312335983E1,1.384952892E1
1.230529780E2,7.060816956E-1,2.139051819E0,9.517208862E0,9.780151255E0
1.232533520E2,-6.424639893E-1,2.487676849E0,7.955506439E0,8.360106386E0
1.234537260E2,1.328786774E0,8.710386658E-1,1.568872513E1,1.576897203E1
1.236541000E2,-4.516108704E-1,1.819316711E0,6.024821320E0,6.309701864E0
1.238544740E2,1.646575928E-2,1.947899323E0,1.166164948E1,1.182322508E1
1.240548470E2,-1.984872437E0,-2.193837891E0,1.455677902E1,1.485437507E1
1.242552210E2,6.053411865E-1,2.817590790E0,5.204377441E0,5.949016756E0
1.244555950E2,5.382806396E-1,2.884501648E0,1.368035156E1,1.399150152E1
1.246559680E2,1.127754822E0,1.911225586E0,5.315446472E0,5.760085536E0
1.248563420E2,-8.476872253E-1,2.473007355E0,5.616320801E0,6.194949422E0
1.250567145E2,-4.984634399E-1,2.111808472E0,1.430799637E1,1.447159151E1
1.252570885E2,-3.686833191E-1,2.249222717E0,5.328469391E0,5.795473775E0
1.254574615E2,-5.713618469E-1,2.775528259E0,7.081174622E0,7.627125638E0
1.256578355E2,9.994715881E-1,3.253783722E0,1.451860840E1,1.491227822E1
1.258582085E2,-4.001179504E-1,1.245260468E0,6.736740875E0,6.862539299E0
1.260585826E2,-1.452729034E0,2.496059418E0,1.155746613E1,1.191284003E1
1.262589556E2,-3.591780853E0,-1.555265808E0,1.643671967E1,1.689631601E1
1.264593286E2,-2.424957275E-2,2.481240234E0,5.975274353E0,6.470011185E0
1.266597026E2,-8.080197144E-1,3.208428040E0,1.359607681E1,1.399286286E1
1.268600756E2,-2.094145203E-1,1.065184937E0,6.842121735E0,6.927705480E0
1.270604496E2,2.854563904E-1,3.037782898E0,4.367318115E0,5.327577105E0
1.272608226E2,-1.907183990E0,2.744243317E0,1.392554169E1,1.432092642E1
1.274611956E2,8.232879639E-2,1.460063782E0,8.702902222E0,8.824911974E0
1.276615686E2,-1.353186035E-1,3.794459381E0,5.701793060E0,6.850304900E0
1.278619416E2,8.669970703E-1,3.117417297E0,1.371507935E1,1.409160658E1
1.280623142E2,-6.783892822E-1,1.198258209E0,5.459297333E0,5.630271940E0
1.282626872E2,-2.887495422E-1,2.833757172E0,1.302696030E1,1.333473849E1
1.284630602E2,-4.352199554E0,-3.163371735E0,1.354847580E1,1.457771444E1
1.286634332E2,-6.526428223E-1,1.699715424E0,4.978048096E0,5.300560161E0
1.288638062E2,-4.462220764E-1,2.449057159E0,1.569186859E1,1.588810042E1
1.290641790E2,1.136436768E0,1.266067200E0,4.278103638E0,4.603974958E0
1.292645520E2,-9.624984741E-1,3.332220612E0,4.274211731E0,5.504451239E0
1.294649240E2,-1.335223389E-1,3.285966797E0,1.501602402E1,1.537193492E1
1.296652970E2,-2.327809296E0,-1.012793884E0,1.023781036E1,1.054785327E1
1.298656700E2,-6.286926270E-1,1.220861206E0,6.180198212E0,6.330924612E0
1.300660420E2,-1.553619232E0,3.665278015E0,1.364218094E1,1.421116098E1
1.302664150E2,5.584886169E-1,8.876541138E-1,5.722450104E0,5.817755113E0
1.304667880E2,-1.281335449E-1,3.481160889E0,7.234455872E0,8.029461445E0
1.306671600E2,-1.316961365E0,2.932402039E0,1.411998734E1,1.448127796E1
1.308675330E2,-1.117725677E0,2.750230865E0,3.846401367E0,4.858794499E0
1.310679054E2,-7.608677673E-1,4.682712250E0,6.387217712E0,7.956334827E0
1.312682774E2,5.297483826E-1,3.260519714E0,1.129296616E1,1.176616789E1
1.314686504E2,7.695497131E-1,1.798360291E0,3.191513214E0,3.743269038E0
1.316690224E2,-4.897814941E-1,3.598067780E0,8.502169647E0,9.245153669E0
1.318693944E2,-1.286125488E0,3.353626099E0,1.281874329E1,1.331244178E1
1.320697671E2,-1.047521667E0,4.275109863E-1,8.609945526E0,8.683963913E0
1.322701391E2,-5.583389282E-2,4.099974060E0,8.314310303E0,9.270418573E0
1.324705111E2,-5.275030518E-1,1.673370209E0,1.307396255E1,1.319116842E1
1.326708831E2,3.038681030E-2,1.872755585E0,4.087849274E0,4.496515153E0
1.328712561E2,-5.038522339E-1,4.052522736E0,1.086335953E1,1.160557572E1
1.330716277E2,-6.978488159E-1,1.209335175E0,1.454570206E1,1.461256079E1
1.332719997E2,-1.931732941E0,5.800437927E-1,8.262518005E0,8.505130613E0
1.334723717E2,-9.291178894E-1,4.298760681E0,1.095886093E1,1.180843920E1
1.336727437E2,-2.067350922E0,-1.075363770E0,7.898325348E0,8.234918966E0
1.338731157E2,-8.366102600E-1,2.958597565E0,7.064110107E0,7.704211049E0
1.340734878E2,-1.006806335E0,2.995570679E0,9.832902374E0,1.032826567E1
1.342738598E2,-1.735341339E0,9.205856323E-2,7.296277313E0,7.500369789E0
1.344742318E2,-3.215313721E-1,2.215243378E0,6.310726776E0,6.695965807E0
1.346746038E2,5.757028198E-1,4.238436127E0,1.383123779E1,1.447753133E1
1.348749748E2,6.855743408E-1,1.222058716E0,6.908583527E0,7.049252870E0
1.350753470E2,-3.757186890E-1,3.118465118E0,5.911656647E0,6.694301572E0
1.352757190E2,-1.565444641E0,2.467169495E0,1.314251999E1,1.346340870E1
1.354760910E2,-1.421593781E0,2.768043823E0,6.625073090E0,7.319466437E0
1.356764620E2,7.180567932E-1,3.688479767E0,4.941074982E0,6.207633247E0
1.358768340E2,3.947291565E-1,3.822750549E0,1.239602234E1,1.297808163E1
1.360772056E2,2.677931213E-1,1.651066589E0,8.806636505E0,8.964071651E0
1.362775766E2,-5.602848816E-1,2.506088562E0,9.522447968E0,9.862627151E0
1.364779486E2,-2.806813202E0,3.263962555E0,8.446485443E0,9.480230390E0
1.366783196E2,1.000220032E0,2.454445953E0,8.769364014E0,9.161140227E0
1.368786916E2,-7.741900635E-1,2.911595306E0,8.428223419E0,8.950514370E0
1.370790628E2,-1.897603912E0,-7.381150818E-1,1.262429764E1,1.278743936E1
1.372794348E2,6.259982300E-1,3.402723999E0,4.588408356E0,5.746642118E0
1.374798058E2,-3.478765869E-1,2.542462921E0,1.063852707E1,1.094364629E1
1.376801778E2,-1.682950287E0,1.763183441E0,6.805298309E0,7.228639055E0
1.378805488E2,1.586700439E-2,2.709216156E0,5.087620239E0,5.764024951E0
1.380809201E2,-4.941224670E-1,2.855761414E0,1.212089447E1,1.246256848E1
1.382812911E2,8.852590942E-1,1.458417206E0,9.660910034E0,9.810394849E0
1.384816631E2,-3.567082214E-1,2.068847809E0,8.565038910E0,8.818574915E0
1.386820341E2,-8.285270691E-1,4.422852631E0,1.151091293E1,1.235917469E1
1.388824051E2,-2.983296204E-1,1.329684906E0,8.970695343E0,9.073612150E0
1.390827761E2,-7.649093628E-1,2.495610352E0,9.907597046E0,1.024566428E1
1.392831471E2,9.610015869E-1,6.189628601E-1,1.266815643E1,1.271962368E1
1.394835181E2,8.890013123E-1,3.235521698E0,6.562353516E0,7.370441483E0
1.396838891E2,3.920347595E-1,3.258124695E0,1.020637573E1,1.072096886E1
1.398842601E2,-9.265731812E-1,9.997709656E-1,1.000145187E1,1.009391497E1
1.400846305E2,8.668473816E-1,3.172652435E0,4.997357941E0,5.982535771E0
1.402850015E2,-3.167413330E-1,3.741619263E0,1.294193710E1,1.347567348E1
1.404853725E2,1.179846497E0,2.510579224E0,9.212442627E0,9.621026190E0
1.406857435E2,-1.645079041E-1,2.324665833E0,6.995552673E0,7.373526381E0
1.408861145E2,-6.849755859E-1,4.114194489E0,1.198886902E1,1.269365070E1
1.410864846E2,9.740245056E-1,2.170486450E0,1.107741440E1,1.132999757E1
1.412868556E2,4.261637878E-1,2.664908295E0,7.952812042E0,8.398248101E0
1.414872266E2,5.694158936E-1,2.965483246E0,1.147274231E1,1.186347931E1
1.416875966E2,2.571652222E-1,3.102298737E0,7.184459839E0,7.829869385E0
1.418879676E2,-7.322772217E-1,2.170037384E0,1.108130630E1,1.131550448E1
1.420883387E2,-1.736838226E0,4.914280701E-1,1.445933167E1,1.457156068E1
1.422887087E2,4.569996643E-1,2.359393616E0,4.922363892E0,5.477705104E0
1.424890797E2,6.027964783E-1,3.220552826E0,1.291184967E1,1.332108051E1
1.426894497E2,2.847079468E-1,1.598974915E0,1.005773483E1,1.018802284E1
1.428898207E2,-3.192860413E-1,2.812351685E0,5.372328186E0,6.072328689E0
1.430901908E2,-1.045126648E0,3.693419495E0,1.306108932E1,1.361343791E1
1.432905608E2,-3.188369751E-2,1.416953430E0,1.074181229E1,1.083491139E1
1.434909318E2,4.373904419E-1,3.157533875E0,8.090525665E0,8.695857411E0
1.436913018E2,3.118016052E-1,1.855691071E0,1.218900284E1,1.233339368E1
1.438916718E2,3.435356140E-1,2.684667206E0,5.210215302E0,5.871268876E0
1.440920424E2,-2.429447937E-1,2.991678772E0,1.245574814E1,1.281229198E1
1.442924124E2,-2.465822296E0,-1.350491638E0,1.400951706E1,1.428883045E1
1.444927824E2,5.526507568E-1,2.915038147E0,6.479725342E0,7.126690029E0
1.446931524E2,-2.859054565E-2,2.869532776E0,1.437820038E1,1.466177622E1
1.448935224E2,7.156617737E-1,3.591032410E-1,5.863606567E0,5.918024070E0
1.450938929E2,-4.481680298E-1,2.618504791E0,6.760541382E0,7.263769111E0
1.452942629E2,-1.308279419E-1,2.285597076E0,1.241608063E1,1.262537635E1
1.454946329E2,-1.207239532E0,2.611170044E0,5.732179871E0,6.413542107E0
1.456950029E2,-1.038839722E-1,3.264860687E0,5.136418762E0,6.087109732E0
1.458953729E2,7.475454712E-1,3.984863434E0,1.211520630E1,1.277560897E1
1.460957428E2,5.915698242E-1,1.827848969E0,9.302854614E0,9.499162631E0
1.462961128E2,4.638853455E-1,2.412084045E0,8.568032684E0,8.913165719E0
1.464964828E2,1.045725403E0,1.553918610E0,1.702978638E1,1.713247877E1
1.466968528E2,-2.432441711E-1,1.311422882E0,6.263874207E0,6.404304629E0
1.468972228E2,-1.588197327E-1,3.315605164E0,1.091260712E1,1.140629017E1
1.470975923E2,-4.323010254E-1,1.362167358E-2,9.626631317E0,9.636342680E0
1.472979623E2,-3.285667419E-1,3.125350800E0,4.597389679E0,5.568820843E0
1.474983323E2,-2.404000854E-1,2.744243317E0,1.290376648E1,1.319453875E1
1.476987013E2,-2.330354004E0,1.992356873E0,5.779182129E0,6.542093073E0
1.478990713E2,3.025209045E-1,3.331172791E0,5.129982147E0,6.124128337E0
1.480994409E2,-2.492317200E-1,3.563489685E0,1.254511230E1,1.304378848E1
1.482998099E2,9.610015869E-1,1.974543915E0,9.499994659E0,9.750499795E0
1.485001799E2,-1.257385254E-2,1.784588928E0,1.013213013E1,1.028809879E1
1.487005489E2,7.996371460E-1,3.656596069E0,1.360490845E1,1.411040922E1
1.489009189E2,-1.341959381E0,2.613565063E-1,1.097457825E1,1.105940911E1
1.491012877E2,-9.081614685E-1,3.400628357E0,8.158634033E0,8.885512915E0
1.493016577E2,-2.312840424E0,-9.125024414E-1,1.292427383E1,1.316125927E1
1.495020267E2,-3.179388428E-1,2.355950775E0,5.660628662E0,6.139568878E0
1.497023957E2,-5.962101746E-1,2.953059082E0,1.076785812E1,1.118135918E1
1.499027657E2,-1.703158264E0,-8.421487427E-1,8.502918091E0,8.712610323E0
1.501031345E2,-4.851411438E-1,2.490221558E0,6.269412689E0,6.763290679E0
1.503035035E2,-6.152206421E-1,2.401905212E0,1.464165253E1,1.485010551E1
1.505038725E2,7.640112305E-1,1.144220581E0,8.863368530E0,8.969518137E0
1.507042425E2,-1.050814819E-1,2.390379181E0,7.727081451E0,8.089050779E0
1.509046115E2,7.165599060E-1,2.637515259E0,1.287667282E1,1.316353478E1
1.511049806E2,-3.607498169E-2,9.102571106E-1,1.013392639E1,1.017478911E1
1.513053496E2,-1.565744019E-1,2.399959259E0,1.044917084E1,1.072238272E1
1.515057186E2,-1.899849243E0,-1.509910126E0,1.535177582E1,1.554240253E1
1.517060876E2,-5.851332092E-1,2.610720978E0,4.357588348E0,5.113396240E0
1.519064566E2,-1.598076782E0,2.468367004E0,1.301408707E1,1.334215677E1
1.521068274E2,-2.367626495E0,9.969268799E-2,6.064189453E0,6.510759370E0
1.523071964E2,1.649569702E-1,2.938539276E0,4.854405212E0,5.676924682E0
1.525075654E2,-1.168470154E0,2.692001953E0,1.472877136E1,1.501828562E1
1.527079344E2,2.113455048E0,3.153192902E0,6.751410370E0,7.745376666E0
1.529083034E2,-1.272204437E0,2.731220398E0,8.045619049E0,8.591277837E0
1.531086710E2,3.968247986E-1,5.016518097E0,1.180804504E1,1.283560873E1
1.533090400E2,2.330653381E-1,2.507884827E0,7.291636963E0,7.714387555E0
1.535094090E2,1.660197601E0,3.838767242E0,9.809101868E0,1.066352988E1
1.537097780E2,5.632786560E-1,-7.318281555E-1,1.697260529E1,1.699771118E1
1.539101470E2,-3.764671326E-1,2.428250427E0,4.918022919E0,5.497733812E0
1.541105150E2,1.746118927E0,4.647685089E0,1.054212753E1,1.165274049E1
1.543108840E2,-2.354902954E0,-5.583389282E-2,7.471263428E0,7.833802560E0
1.545112530E2,8.743318176E-1,3.053200836E0,4.123175812E0,5.204524017E0
1.547116220E2,4.625381470E-2,3.080294495E0,1.396251480E1,1.429832764E1
1.549119900E2,1.804048462E0,2.989732819E0,6.989714813E0,7.813399155E0
1.551123595E2,9.101074219E-2,2.579436035E0,8.146958313E0,8.546034342E0
1.553127275E2,7.515870667E-1,5.045408020E0,1.197659454E1,1.301767422E1
1.555130965E2,1.592687988E-1,1.968256989E0,8.719517670E0,8.940323848E0
1.557134655E2,-1.573228455E-1,3.018772430E0,9.727671204E0,1.018652662E1
1.559138335E2,-1.222507782E0,-1.582658844E0,1.755205032E1,1.766561080E1
1.561142019E2,-1.044827271E-1,2.517015839E0,6.035598907E0,6.540240022E0
1.563145699E2,-3.740721130E-1,2.175725555E0,1.227148132E1,1.246847888E1
1.565149389E2,-2.720742188E0,-5.673202515E-2,6.157744904E0,6.732271450E0
1.567153069E2,-6.005511475E-1,2.514171753E0,5.686524811E0,6.246461855E0
1.569156749E2,-4.893324280E-1,3.013832703E0,1.321481964E1,1.356296767E1
1.571160435E2,7.170089722E-1,2.901266785E0,4.843028870E0,5.690903220E0
1.573164115E2,-1.415157166E0,3.217259674E0,6.451733551E0,7.346992271E0
1.575167795E2,-1.285676422E0,4.943170624E0,1.253433472E1,1.353504512E1
1.577171485E2,-5.281018066E-1,5.996530151E-1,1.004501129E1,1.007674189E1
1.579175165E2,-2.240840149E-1,3.175346832E0,9.577383728E0,1.009253785E1
1.581178853E2,5.219645691E-1,-4.385879517E-2,1.598076782E1,1.598934992E1
1.583182533E2,-1.448238373E0,2.255060577E0,4.345912628E0,5.105844608E0
1.585186213E2,-8.366102600E-1,2.907104645E0,1.331346451E1,1.365282064E1
1.587189903E2,-3.349734192E0,-2.975811768E-1,8.682694244E0,9.311200409E0
1.589193583E2,-2.377056885E-1,2.444566498E0,4.696932678E0,5.300338285E0
1.591197265E2,-7.051835632E-1,4.339326324E0,1.466754868E1,1.531221803E1
1.593200945E2,1.463057556E0,3.192860413E0,5.895939331E0,6.862725087E0
1.595204625E2,-8.683442688E-1,4.082161102E0,6.783144379E0,7.964239367E0
1.597208305E2,-1.673669586E0,4.988675995E0,1.140568176E1,1.256095675E1
1.599211985E2,-7.840695190E-1,8.086184692E-1,9.110654297E0,9.180013647E0
1.601215652E2,2.125879211E0,5.389392700E0,8.675958252E0,1.043250534E1
1.603219332E2,-1.497785339E0,-1.568139038E0,1.545356415E1,1.560496927E1
1.605223012E2,-2.505789185E-1,2.739602966E0,6.405030670E0,6.970841563E0
1.607226692E2,-1.351988525E0,2.424358521E0,1.193707672E1,1.225557783E1
1.609230372E2,-4.498445435E0,-1.350641327E0,1.256008118E1,1.340954445E1
1.611234034E2,4.969665527E-1,2.115101624E0,4.033961334E0,4.581863669E0
1.613237714E2,-1.809736633E-1,3.733685760E0,1.505449402E1,1.551163921E1
1.615241394E2,1.210532684E0,2.032623138E0,7.977360992E0,8.320771275E0
1.617245064E2,-9.345066833E-1,3.758234711E0,3.403771820E0,5.155898902E0
1.619248744E2,4.236190796E-2,5.231471100E0,1.333322342E1,1.432288138E1
1.621252430E2,-4.538562012E-1,8.693920898E-1,9.272318115E0,9.324039430E0
1.623256100E2,-6.167175293E-2,4.811743927E0,8.205636292E0,9.512578513E0
1.625259780E2,-2.013762360E0,1.342707825E0,1.302351746E1,1.324651313E1
1.627263450E2,-7.777825928E-1,2.689008179E0,7.534432068E0,8.037622617E0
1.629267130E2,-3.195554810E0,2.351759491E0,1.146720383E1,1.213421225E1
1.631270795E2,-3.102598114E0,-1.146914978E0,1.336390961E1,1.376719321E1
1.633274465E2,-2.131567383E-1,1.845212860E0,6.356681213E0,6.622510275E0
1.635278145E2,-1.040336609E0,1.099014587E0,1.175535461E1,1.185236244E1
1.637281815E2,-7.342231750E-1,2.526146851E0,6.193370819E0,6.728918463E0
1.639285485E2,-6.029461670E-1,2.667902069E0,5.170398102E0,5.849295860E0
1.641289175E2,-1.628313904E0,3.535048828E0,1.575728256E1,1.623083270E1
1.643292845E2,-1.278341675E-1,1.306034088E0,8.066276093E0,8.172323820E0
1.645296515E2,1.710942078E-1,2.124981079E0,9.126072235E0,9.371766763E0
1.647300185E2,-3.891906738E-1,-1.636097717E-1,1.489567429E1,1.490165595E1
1.649303855E2,-2.190095673E0,4.328997803E-1,1.008273285E1,1.032692708E1
1.651307521E2,-1.579665070E0,2.606978760E0,9.791887665E0,1.025537635E1
1.653311191E2,-4.874463501E0,-1.616488495E0,9.218579865E0,1.055251838E1
1.655314861E2,4.733157349E-1,2.108814697E0,4.743336182E0,5.212520057E0
1.657318531E2,-4.528083801E-1,3.286864929E0,1.379935410E1,1.419262801E1
1.659322201E2,-9.689350891E-1,1.888772278E0,6.379284210E0,6.723210763E0
1.661325870E2,-1.018482056E0,3.996239777E0,8.371042328E0,9.331751588E0
1.663329540E2,-2.460882568E-1,3.740571442E0,1.441951447E1,1.489881980E1
1.665333210E2,-4.203259277E-1,8.306227112E-1,8.384963379E0,8.436481425E0
1.667336880E2,-1.072220306E0,4.235142975E0,1.069256470E1,1.155062908E1
1.669340550E2,-2.114951935E0,-1.747316437E0,1.024544449E1,1.060637870E1
1.671344207E2,-7.843688965E-1,3.413052521E0,4.397106171E0,5.621272521E0
1.673347877E2,-2.538571014E0,2.544259186E0,1.420096893E1,1.464872405E1
1.675351547E2,-6.722520447E-1,2.482138367E0,4.039499817E0,4.788579377E0
1.677355217E2,-8.592132568E-2,4.345762939E0,6.269712067E0,7.629044986E0
1.679358877E2,-6.137237549E-1,4.682113495E0,1.330358505E1,1.411680626E1
1.681362553E2,3.282673645E-1,2.122436371E0,6.126909027E0,6.492419413E0
1.683366213E2,-1.154100037E0,2.603685608E0,1.128937363E1,1.164307015E1
1.685369883E2,-7.140151978E-2,1.886377258E0,1.383872223E1,1.396688048E1
1.687373543E2,-1.140328674E0,7.418572998E-1,8.239765320E0,8.351313326E0
1.689377213E2,-1.297501831E0,3.556903381E0,1.083461929E1,1.147710974E1
1.691380867E2,-3.532354431E0,-2.556234283E0,1.423195450E1,1.488490478E1
1.693384537E2,-8.102650452E-1,2.797382812E0,5.257666626E0,6.010402515E0
1.695388197E2,-2.180365906E0,2.632874908E0,1.321661591E1,1.365155529E1
1.697391857E2,-1.575922852E0,2.014361115E0,5.981561279E0,6.505402284E0
1.699395527E2,6.343807983E-1,3.941004639E0,5.434898071E0,6.743298422E0
1.701399193E2,8.059240723E-1,4.834047546E0,1.165266815E1,1.264128966E1
1.703402853E2,-8.267308044E-1,7.382647705E-1,8.592431946E0,8.663625421E0
1.705406513E2,-1.003962250E0,2.497256927E0,1.352826782E1,1.379341374E1
1.707410173E2,-3.775299225E0,-1.954485626E0,1.545161819E1,1.602577309E1
1.709413843E2,6.246510315E-1,1.952090607E0,6.585555267E0,6.897128738E0
1.711417499E2,-1.787732391E0,2.993325348E0,1.308833267E1,1.354475677E1
1.713421159E2,-8.059240723E-1,1.222058716E0,4.138893127E0,4.390145491E0
1.715424819E2,-1.282982025E0,3.187770996E0,4.518803101E0,5.676927713E0
1.717428479E2,-4.656367035E0,1.957329712E0,1.442250824E1,1.528141477E1
1.719432139E2,-4.093986511E-1,3.293151855E0,4.001179504E0,5.198258730E0
1.721435801E2,-1.211430817E0,4.406087494E0,5.908064117E0,7.469028936E0
1.723439461E2,-5.328918457E-1,4.443359985E0,1.250170258E1,1.327855372E1
1.725443111E2,-1.877845001E0,1.146465912E0,8.392148438E0,8.675761715E0
1.727446771E2,-1.441203003E0,2.473606110E0,1.014919464E1,1.054523329E1
1.729450431E2,-3.278182983E0,-5.469625854E-1,1.386386993E1,1.425666656E1
1.731454092E2,-1.803150330E0,6.125262451E-1,7.103927307E0,7.354748310E0
1.733457752E2,-6.454577637E-1,4.872218170E0,9.814340973E0,1.097617485E1
1.735461402E2,-3.482059021E0,-2.007774811E0,8.882828064E0,9.749898929E0
1.737465062E2,-4.409829712E-1,3.644022217E0,5.352569275E0,6.490251285E0
1.739468722E2,-2.775079193E0,2.328408051E0,1.304073166E1,1.353451997E1
1.741472374E2,-1.594783630E0,2.967878265E0,3.768563232E0,5.055067266E0
1.743476034E2,1.779798889E-1,3.423231354E0,6.181695099E0,7.068489516E0
1.745479684E2,-2.030677185E0,3.077300720E0,1.372840164E1,1.421486691E1
1.747483344E2,-7.527845764E-1,1.886077881E0,9.284293213E0,9.503792656E0
1.749486994E2,-2.016307068E-1,3.251538391E0,8.811127167E0,9.394100212E0
1.751490646E2,1.080153809E0,3.751498718E0,1.425770096E1,1.478250694E1
1.753494296E2,-1.573677521E0,9.354048157E-1,9.274413757E0,9.453369434E0
1.755497946E2,-7.656578064E-1,3.656296692E0,9.217981110E0,9.946150668E0
1.757501606E2,-2.567760315E0,-9.961784363E-1,1.106199646E1,1.139971623E1
1.759505256E2,-1.304237823E0,1.936373291E0,5.288801880E0,5.781176623E0
1.761508907E2,-2.234553223E0,1.447340240E0,1.364083374E1,1.389821453E1
1.763512557E2,6.858737183E-1,2.781515808E0,5.337301025E0,6.057560168E0
1.765516217E2,-4.156855774E-1,3.008443909E0,5.238057404E0,6.054814168E0
1.767519867E2,8.930429077E-1,5.579946442E0,1.107666595E1,1.243486456E1
1.769523517E2,-8.199948120E-1,7.752378845E-1,7.825277252E0,7.906222192E0
1.771527174E2,-6.933581543E-1,2.182760925E0,1.186298080E1,1.208203229E1
1.773530824E2,-7.235952759E-1,7.869136047E-1,1.412432831E1,1.416472638E1
1.775534474E2,-2.437231750E0,5.673202515E-2,8.374784546E0,8.722404102E0
1.777538124E2,-2.401605835E0,3.062780914E0,1.111947693E1,1.178096366E1
1.779541774E2,-3.560795288E0,-3.110232239E0,1.154474258E1,1.247533122E1
1.781545421E2,-9.782157898E-1,2.805615692E0,5.476062469E0,6.230220358E0
1.783549071E2,-3.374881897E0,2.962639160E0,1.263103363E1,1.340559843E1
1.785552711E2,-1.624272308E0,5.580395508E-1,5.584886169E0,5.842997706E0
1.787556361E2,-7.756869507E-1,2.805016937E0,6.449937286E0,7.076121908E0
1.789560011E2,-2.323168945E0,4.001179504E0,1.365071320E1,1.441348404E1
1.791563665E2,6.397695923E-1,2.723137207E0,6.930737457E0,7.473948293E0
1.793567305E2,-1.068478088E0,3.668122101E0,7.779322815E0,8.666869598E0
1.795570955E2,9.358538818E-1,4.874762878E0,1.475840973E1,1.557079938E1
1.797574605E2,-1.385818176E0,9.536668396E-1,6.647975464E0,6.857517789E0
1.799578245E2,-5.150788879E-1,3.281326447E0,1.390518402E1,1.429638249E1
1.801581889E2,-1.933529205E0,-2.633174286E0,1.144355301E1,1.190071626E1
1.803585529E2,-7.499404907E-1,2.739453278E0,5.282215576E0,5.997400803E0
1.805589179E2,-1.239272919E0,2.071991272E0,1.308893143E1,1.330973595E1
1.807592819E2,-1.438807983E0,1.362915802E0,2.729424133E0,3.373049658E0
1.809596469E2,-1.675016785E-1,4.069886627E0,5.623056793E0,6.943399864E0
1.811600108E2,-1.767075348E0,3.738924866E0,1.291723846E1,1.356308092E1
1.813603758E2,3.528163147E-1,2.448757782E0,6.700516205E0,7.142675370E0
1.815607398E2,-6.911128235E-1,2.844834137E0,9.155860291E0,9.612517665E0
1.817611037E2,-1.860630798E-1,3.236270142E0,1.337064560E1,1.375798778E1
1.819614678E2,-1.792821808E0,1.354682922E-1,8.913813629E0,9.093329154E0
1.821618330E2,-1.348246307E0,3.493585052E0,1.123653351E1,1.184409515E1
1.823621970E2,-1.927990723E0,-1.703757019E0,1.199740128E1,1.227019045E1
1.825625610E2,-2.993774414E-1,3.134631500E0,6.725963287E0,7.426582231E0
1.827629250E2,-1.046174469E0,3.260968781E0,1.123204285E1,1.174253741E1
1.829632890E2,-1.998643799E0,1.315464478E0,4.224215698E0,4.854793723E0
1.831636531E2,-2.133064270E-1,3.436853027E0,5.955665131E0,6.879491661E0
1.833640171E2,7.403604126E-1,3.736529846E0,9.697284393E0,1.041859460E1
1.835643811E2,8.469387817E-1,2.246528320E0,8.101752319E0,8.450005055E0
1.837647451E2,6.001020813E-1,2.861898651E0,7.625293121E0,8.166742410E0
1.839651091E2,1.132544861E0,2.310146027E0,1.473161545E1,1.495459549E1
1.841654728E2,-9.478289795E-1,2.165995789E-1,9.318571930E0,9.369155670E0
1.843658368E2,-8.162525940E-1,3.165617065E0,1.042851379E1,1.092892033E1
1.845662008E2,-3.266207886E-1,-1.128952332E0,9.536818085E0,9.608960073E0
1.847665638E2,8.098159790E-2,2.843337250E0,5.615572357E0,6.294900923E0
1.849669278E2,3.224295044E-1,2.285447388E0,1.316826645E1,1.336901162E1
1.851672916E2,-2.669997711E0,2.237397308E0,4.305796051E0,5.538475794E0
1.853676546E2,8.045768738E-1,3.385659485E0,4.659061432E0,5.815228931E0
1.855680186E2,-1.350491638E0,3.634741516E0,1.345671661E1,1.400422778E1
1.857683826E2,4.631369019E-1,7.605683899E-1,7.226073303E0,7.280734540E0
1.859687456E2,-1.523382111E0,3.284918976E0,9.663754120E0,1.031986092E1
1.861691100E2,1.154549103E0,5.541775818E0,1.313623306E1,1.430401629E1
1.863694730E2,-3.821553040E-1,1.255888367E0,8.017028503E0,8.123794944E0
1.865698370E2,-6.310876465E-1,3.907324677E0,1.381821487E1,1.437388326E1
1.867702000E2,-1.607058105E0,-2.128573608E-1,8.851393433E0,8.998617100E0
1.869705640E2,-6.471043396E-1,3.607348480E0,4.270469513E0,5.627487623E0
1.871709275E2,-1.766027527E0,2.707569580E0,1.323068665E1,1.361986987E1
1.873712905E2,-1.503473511E0,9.490264893E-1,5.028642883E0,5.333697884E0
1.875716545E2,-6.137237549E-3,3.044369202E0,6.392756195E0,7.080646388E0
1.877720175E2,-1.695524139E0,5.613626404E0,1.358230545E1,1.479414157E1
1.879723805E2,3.495231628E-1,2.496508484E0,6.436315613E0,6.912371497E0
1.881727426E2,-1.295705566E0,2.536924438E0,7.836803284E0,8.338484528E0
1.883731056E2,-5.331912231E-1,7.664062500E-1,1.675989761E1,1.678588215E1
1.885734696E2,-1.477427673E0,2.327659607E-1,7.961044922E0,8.100321523E0
1.887738326E2,3.097059631E-1,3.577560425E0,1.154803574E1,1.209346872E1
1.889741956E2,-2.392624512E0,-8.217910767E-2,6.301745453E0,6.741172095E0
1.891745588E2,3.165916443E-1,3.907624054E0,4.697082367E0,6.118197347E0
1.893749218E2,-2.585423584E0,2.130818939E0,1.562226334E1,1.597748154E1
1.895752848E2,-8.431965637E-1,3.160228271E0,4.254752197E0,5.366650672E0
1.897756478E2,-1.706451416E-2,4.115541687E0,5.538482666E0,6.900200346E0
1.899760108E2,-6.122268677E-1,1.694775696E0,1.698263443E1,1.707796705E1
1.901763732E2,-1.300046539E0,1.063089294E0,7.191046143E0,7.384539558E0
1.903767362E2,-2.192341003E0,1.906585236E0,1.287173309E1,1.319556513E1
1.905770992E2,-2.247576141E0,8.270301819E-1,1.504446487E1,1.523389316E1
1.907774622E2,-1.471589813E0,8.390052795E-1,5.635181580E0,5.884282273E0
1.909778252E2,-1.133143616E0,3.535348206E0,1.309686493E1,1.361288259E1
1.911781870E2,8.547225952E-1,1.496138763E0,6.613996124E0,6.834758712E0
1.913785500E2,-1.560504913E0,2.637365570E0,5.008883972E0,5.871949538E0
1.915789130E2,-2.247576141E0,3.511847076E0,1.447804276E1,1.506646576E1
1.917792750E2,-8.033793640E-1,2.436782684E0,5.249882812E0,5.843337899E0
1.919796380E2,4.299060059E-1,5.489085388E0,8.458011475E0,1.009221659E1
1.921799996E2,1.275647278E0,1.306333466E0,1.426189224E1,1.437829452E1
1.923803626E2,-2.615061951E-1,1.874402161E0,4.385280762E0,4.776238720E0
1.925807246E2,-1.315015411E0,1.898651733E0,1.651755157E1,1.667823893E1
1.927810876E2,-1.788929901E0,-1.005159760E0,1.263806900E1,1.280356999E1
1.929814496E2,-1.192120972E0,9.665400696E-1,6.971303101E0,7.138236409E0
1.931818132E2,7.649093628E-2,4.588408356E0,1.160581558E1,1.248015615E1
1.933821752E2,-5.200186157E-1,1.451980591E0,4.425247650E0,4.686308116E0
1.935825372E2,-1.393152924E0,3.603606262E0,4.564757538E0,5.980289670E0
1.937829002E2,-1.908830566E0,4.455185394E0,1.294313461E1,1.382089160E1
1.939832622E2,-5.605842590E-1,2.082170105E0,6.497238922E0,6.845714036E0
1.941836240E2,7.604187012E-1,4.984933777E0,6.786587219E0,8.454913805E0
1.943839860E2,-1.524729309E0,6.697073364E-1,1.701930817E1,1.710058940E1
1.945843480E2,-8.653504944E-1,1.216969299E0,7.699838104E0,7.843299853E0
1.947847110E2,-1.347797241E0,4.456682281E0,1.079360458E1,1.175501911E1
1.949850730E2,-3.520678711E0,-9.186396790E-1,1.135344040E1,1.192223496E1
1.951854351E2,-7.696994019E-1,2.655328217E0,4.986580353E0,5.701682973E0
1.953857971E2,-2.028132477E0,4.365970917E0,1.431892365E1,1.510650846E1
1.955861591E2,-1.114881592E0,1.579216003E0,5.442681885E0,5.775783085E0
1.957865211E2,-1.168320465E0,3.840114441E0,3.852089539E0,5.563276502E0
1.959868831E2,-3.713627472E0,3.151396637E0,1.455273743E1,1.534615575E1
1.961872448E2,-9.762698364E-1,3.085683289E0,4.491410065E0,5.536001131E0
1.963876068E2,-5.053491211E-1,3.588637390E0,7.425308990E0,8.262500206E0
1.965879678E2,-1.186432800E0,2.386337585E0,1.429527283E1,1.454156302E1
1.967883298E2,-2.492317200E-1,1.202150116E0,6.526877289E0,6.641340866E0
1.969886917E2,-1.859882355E0,2.668201447E0,1.192270660E1,1.235837344E1
1.971890541E2,-3.638483734E0,-7.192543030E-1,1.535072800E1,1.579242669E1
1.973894161E2,-5.918692017E-1,1.189426575E0,5.365592194E0,5.527623750E0
1.975897771E2,-7.815248108E-1,2.389481049E0,1.373618546E1,1.396435432E1
1.977901391E2,1.080752563E-1,1.740430756E0,8.735085297E0,8.907440408E0
1.979905001E2,-1.180145874E0,3.055296478E0,4.261039124E0,5.374386967E0
1.981908615E2,-1.188827820E0,3.908971252E0,1.475556564E1,1.531078330E1
1.983912235E2,-2.560575256E0,2.137854309E0,2.104174347E0,3.943921446E0
1.985915845E2,8.093669128E-1,4.195475464E0,6.139482880E0,7.479995936E0
1.987919465E2,-1.817071381E0,4.127816162E0,1.243179794E1,1.322460641E1
1.989923075E2,-1.428479462E0,1.273551636E0,8.883277130E0,9.087084236E0
1.991926697E2,-2.336042175E0,2.692750397E0,9.349557495E0,1.000610929E1
1.993930307E2,-1.355581055E0,1.891766052E0,1.742421616E1,1.757895581E1
1.995933917E2,-1.518891449E0,5.659730530E-1,5.365143127E0,5.604651417E0
1.997937537E2,-1.762434998E0,3.357967072E0,1.303519318E1,1.357565398E1
1.999941147E2,-2.178719330E0,-1.048270111E0,1.086051544E1,1.112638683E1
2.001944762E2,-1.440903625E0,2.125729523E0,4.546645203E0,5.221772866E0
2.003948382E2,-2.001637573E0,3.560944977E0,1.195294373E1,1.263169608E1
2.005951992E2,-1.669328613E0,2.014959869E0,4.062701569E0,4.832418166E0
2.007955602E2,-4.535568237E-1,3.060984650E0,6.075865173E0,6.818465987E0
2.009959212E2,-1.152752838E0,4.840783539E0,1.318787567E1,1.409546342E1
2.011962826E2,-3.314108276E-1,1.341360626E0,7.892786865E0,8.012812613E0
2.013966436E2,-3.945794678E-1,2.520608368E0,9.615853729E0,9.948557807E0
2.015970056E2,-1.685345306E0,2.986140289E0,1.280601974E1,1.325713258E1
2.017973666E2,-7.033872986E-1,8.030799866E-1,9.176966400E0,9.238852930E0
2.019977276E2,-1.077908478E0,3.802093506E0,1.009126511E1,1.083750124E1
2.021980873E2,-3.097059631E0,-1.878294067E0,1.179532150E1,1.233893741E1
2.023984483E2,-6.156697083E-1,2.378104706E0,3.520379333E0,4.292726620E0
2.025988083E2,-2.357747040E0,3.293151855E0,1.504850647E1,1.558400999E1
2.027991693E2,-1.853146362E0,2.040406952E0,2.171534271E0,3.508984620E0
2.029995303E2,-5.731581116E-1,3.398532715E0,6.259682922E0,7.145779532E0
2.031998922E2,-9.360035706E-1,4.155358887E0,1.430560135E1,1.492626343E1
2.034002532E2,-5.839356995E-1,1.265618134E0,6.281387787E0,6.434174593E0
2.036006142E2,-5.288951569E0,6.655160522E-1,1.564890793E1,1.653191579E1
2.038009742E2,-3.974684601E0,-1.768422546E0,1.548634598E1,1.608578092E1
2.040013352E2,-8.357121277E-1,2.023941193E0,5.227728882E0,5.667795160E0
2.042016953E2,-1.374890900E0,9.846524048E-1,1.205128922E1,1.216936470E1
2.044020553E2,3.661386108E-1,1.443448334E0,5.526956635E0,5.724058893E0
2.046024163E2,-1.753753052E0,3.090922394E0,5.014721832E0,6.146290431E0
2.048027773E2,-2.855012970E0,3.827839966E0,1.354413483E1,1.436130377E1
2.050031373E2,-1.230590973E0,2.633623352E0,7.461982727E0,8.008215302E0
2.052034993E2,9.415420532E-1,5.357808380E0,7.531138916E0,9.290353354E0
2.054038593E2,-1.850601654E0,3.404220886E0,1.509520935E1,1.558456902E1
2.056042203E2,-7.444020081E-1,1.633253632E0,5.033283234E0,5.343743247E0
2.058045803E2,-2.389031982E0,3.136727142E0,1.260483810E1,1.320713726E1
2.060049403E2,-4.315525818E0,-1.178199921E0,1.324400894E1,1.397911624E1
2.062053015E2,-1.101409607E0,2.290686493E0,4.969665527E0,5.581928268E0
2.064056615E2,-1.763782196E0,3.543730774E0,1.568618042E1,1.617792359E1
2.066060215E2,-8.306227112E-1,2.993774414E-2,7.314090271E0,7.361164775E0
2.068063825E2,-1.977088623E0,3.854634247E0,3.292403412E0,5.441231922E0
2.070067425E2,-2.052531738E0,4.479734344E0,1.506871445E1,1.585392890E1
2.072071021E2,6.679110718E-1,3.818110199E0,2.395917664E0,4.556807231E0
2.074074621E2,8.080197144E-1,4.604275360E0,6.742279358E0,8.204302432E0
2.076078221E2,-6.908134460E-1,5.136418762E0,1.426383820E1,1.517620180E1
2.078081821E2,1.462907867E0,3.195255432E0,3.946243744E0,5.284183607E0
2.080085421E2,-4.800517273E-1,3.809128876E0,1.012689102E1,1.083022780E1
2.082089018E2,-1.127455444E0,2.793790283E0,1.412881897E1,1.444645096E1
2.084092618E2,-5.483097839E-1,9.226812744E-1,5.705834656E0,5.805905052E0
2.086096218E2,-1.689835968E0,4.278702393E0,1.198752182E1,1.283991897E1
2.088099818E2,3.026705933E-1,8.638536072E-1,9.566306763E0,9.609998836E0
2.090103417E2,-1.734892273E0,2.391726379E0,4.126169586E0,5.074985884E0
2.092107025E2,-3.518433380E0,3.839066620E0,1.448028809E1,1.538819512E1
2.094110625E2,-1.027014313E0,2.135159912E0,4.159849548E0,4.787276315E0
2.096114225E2,-8.187973022E-2,3.410956879E0,5.979765015E0,6.884687411E0
2.098117825E2,-1.652114410E0,4.002826080E0,1.379516281E1,1.445885942E1
2.100121415E2,3.921844482E-2,1.717827759E0,4.369264069E0,4.694990820E0
2.102125012E2,-1.894909515E0,2.983745270E0,1.019754410E1,1.079274402E1
2.104128613E2,-9.280700684E-1,3.521127777E0,1.322814194E1,1.372018200E1
2.106132213E2,-2.461780701E0,-7.813751221E-2,6.739734650E0,7.175687621E0
2.108135803E2,-1.190025330E0,3.420237579E0,1.222163498E1,1.274686420E1
2.110139403E2,-2.316582642E0,-1.578018494E0,1.314371750E1,1.343927108E1
2.112142988E2,-1.258882141E0,1.199306030E0,6.106701050E0,6.349402878E0
2.114146588E2,-3.190764771E0,2.883902893E0,1.467368591E1,1.529100827E1
2.116150178E2,-3.891906738E-1,1.539698181E0,4.383334808E0,4.662163008E0
2.118153777E2,-4.584965515E-1,3.271746368E0,5.976471863E0,6.828818296E0
2.120157368E2,-1.635648651E0,4.073628845E0,1.135448822E1,1.217350407E1
2.122160970E2,9.424401855E-1,1.623823242E0,5.785918121E0,6.082914099E0
2.124164560E2,-1.046024780E0,3.176694031E0,1.021745270E1,1.075090194E1
2.126168160E2,-5.291496277E-1,1.908830566E0,1.379037277E1,1.393190635E1
2.128171750E2,-4.113446045E-1,1.932182007E0,6.444099426E0,6.740100081E0
2.130175340E2,-6.150709534E-1,4.111649780E0,1.016161880E1,1.097918362E1
2.132178928E2,-3.256927185E0,-2.468816071E0,1.408870239E1,1.466949769E1
2.134182528E2,-9.836045837E-1,1.916764069E0,4.945116577E0,5.394037489E0
2.136186118E2,-7.291337585E-1,3.067870331E0,1.395039001E1,1.430233708E1
2.138189708E2,-5.407654724E0,-1.962568817E0,1.174966644E1,1.308239533E1
2.140193297E2,-3.122506714E-1,2.779270477E0,3.951333160E0,4.840958439E0
2.142196895E2,-1.334624634E0,4.323010254E0,1.262848892E1,1.341448370E1
2.144200485E2,2.472258911E0,1.519490204E0,5.371280365E0,6.105044419E0
2.146204075E2,-2.206711121E0,2.833607483E0,5.217400360E0,6.334048615E0
2.148207665E2,-1.832339630E0,4.343966675E0,1.104388412E1,1.200811774E1
2.150211255E2,2.140548706E-2,2.450404358E0,4.323459320E0,4.969631798E0
2.152214836E2,7.035369873E-3,4.405937805E0,8.648864594E0,9.706451267E0
2.154218426E2,-1.037043457E0,1.806293793E0,1.571522003E1,1.585264322E1
2.156222016E2,-1.528321838E0,1.340911560E0,4.891528015E0,5.297250020E0
2.158225606E2,-1.258732452E0,3.979175262E0,1.514655258E1,1.571102474E1
2.160229196E2,-3.754791870E0,-2.072290649E0,1.181717606E1,1.257133646E1
2.162232787E2,-9.949809265E-1,2.280807037E0,5.573210449E0,6.103502478E0
2.164236377E2,-2.100881195E0,4.382286987E0,1.601025650E1,1.673160047E1
2.166239957E2,3.794609070E-1,1.285676422E0,4.408332825E0,4.607640691E0
2.168243547E2,3.188369751E-1,4.288132782E0,5.079836426E0,6.655409671E0
2.170247137E2,-1.018781433E0,3.769461365E0,1.484732483E1,1.535219232E1
2.172250723E2,-2.965333557E-1,1.866917725E0,5.981112213E0,6.272720074E0
2.174254313E2,4.128414917E-1,3.664230194E0,9.469158783E0,1.016179064E1
2.176257903E2,-8.238867188E-1,6.953041077E-1,1.676109512E1,1.679573002E1
2.178261483E2,5.194198608E-1,1.965412903E0,5.342240753E0,5.715958462E0
2.180265073E2,-1.701960754E0,3.241808624E0,1.421638687E1,1.468031503E1
2.182268652E2,-3.302133179E0,-5.584886169E-1,1.291813660E1,1.334519562E1
2.184272242E2,1.990859985E-1,2.052831116E0,5.708678741E0,6.069824033E0
2.186275822E2,-1.522334290E0,3.454366608E0,1.380474289E1,1.431157142E1
2.188279412E2,-5.057981873E-1,4.029620361E-1,7.447462921E0,7.475487554E0
2.190282992E2,-1.546284485E0,2.496508484E0,6.050418091E0,6.725407749E0
2.192286574E2,-1.079405365E0,3.123853912E0,1.316407516E1,1.357263623E1
2.194290164E2,-7.369175720E-1,1.434766388E0,5.039570160E0,5.291395798E0
2.196293744E2,-3.577560425E-1,3.433559875E0,6.025120697E0,6.944019169E0
2.198297324E2,1.496887207E-1,4.414619751E0,1.278506332E1,1.352660780E1
2.200300904E2,8.259823608E-1,2.452500000E0,5.866151276E0,6.411609306E0
2.202304486E2,-2.176473999E-1,3.364553375E0,8.914412384E0,9.530705008E0
2.204308066E2,1.273252258E0,3.627855835E0,1.296349228E1,1.352163605E1
2.206311646E2,1.472937012E-1,1.193767548E0,7.944579163E0,8.035117576E0
2.208315226E2,-1.971400452E-1,4.021836548E0,9.335636444E0,1.016701240E1
2.210318806E2,7.125183105E-2,-2.887495422E-1,1.371687561E1,1.372009948E1
2.212322390E2,-1.232237549E0,1.932780762E0,7.612419891E0,7.950030657E0
2.214325970E2,-6.950047302E-1,3.452121277E0,1.058942917E1,1.115957808E1
2.216329550E2,-1.799857178E0,6.985972595E-1,7.899223480E0,8.131743699E0
2.218333130E2,7.140151978E-1,2.266586609E0,5.840853882E0,6.305775656E0
2.220336710E2,-1.148112488E-1,2.685565338E0,1.540252029E1,1.563531497E1
2.222340293E2,1.314865723E0,2.525248718E0,4.431983643E0,5.267659059E0
2.224343873E2,-9.298663330E-1,2.995121613E0,7.144642639E0,7.802648481E0
2.226347453E2,-3.047063599E0,1.598376160E0,1.567959412E1,1.605269680E1
2.228351033E2,1.664538574E-1,1.935924225E0,6.112389221E0,6.413798522E0
2.230354603E2,-1.782792664E-1,3.741768951E0,1.034887939E1,1.100599487E1
2.232358178E2,3.234773254E-1,2.243833923E0,1.320658676E1,1.339975232E1
2.234361758E2,-5.459147644E-1,1.575024719E0,7.027136993E0,7.222145119E0
2.236365338E2,-1.216969299E0,2.881956940E0,1.074271042E1,1.118894621E1
2.238368908E2,-2.902314606E0,-1.887125702E0,1.706541229E1,1.741301152E1
2.240372488E2,-2.531984711E0,6.932084656E-1,7.035220184E0,7.509048381E0
2.242376067E2,-1.237925720E0,2.896327057E0,1.234991821E1,1.274525992E1
2.244379637E2,-6.631210327E-2,-1.781295776E-2,7.475754089E0,7.476069409E0
2.246383217E2,-1.362017670E0,2.823278961E0,4.586612091E0,5.555448380E0
2.248386797E2,-1.748663635E0,2.561623077E0,1.529594193E1,1.560722835E1
2.250390367E2,-1.589544525E0,2.045047302E0,4.260140991E0,4.985746838E0
2.252393955E2,9.556127930E-1,3.338806915E0,5.398374023E0,6.418977296E0
2.254397525E2,-3.911366272E-1,4.042194214E0,1.450738174E1,1.506507375E1
2.256401095E2,5.081932068E-1,1.604363708E0,6.045777740E0,6.275641141E0
2.258404675E2,-7.487429810E-1,2.777623901E0,9.990374908E0,1.039631672E1
2.260408245E2,3.487747192E-2,2.997666321E0,1.419902298E1,1.451204580E1
2.262411818E2,-6.800358582E-1,1.215622101E0,8.058192902E0,8.177692749E0
2.264415388E2,1.716929626E-1,4.351600800E0,1.003318588E1,1.093758323E1
2.266418958E2,-5.613327026E-1,6.944059753E-1,1.521061935E1,1.523680528E1
2.268422528E2,-1.314566345E0,2.414179688E0,3.374133453E0,4.352140255E0
2.270426108E2,-2.380799103E0,3.324287109E0,1.225860809E1,1.292256018E1
2.272429680E2,-2.555336151E0,-9.280700684E-3,6.398294678E0,6.889702734E0
2.274433250E2,-6.541397095E-1,1.886227570E0,4.325405273E0,4.763914775E0
2.276436820E2,2.210453339E0,7.661817169E0,1.557376419E1,1.749661903E1
2.278440390E2,-5.122348022E-1,2.299817505E0,3.938609619E0,4.589574139E0
2.280443960E2,-1.846859436E0,4.044289856E0,8.431815948E0,9.532192319E0
2.282447531E2,-4.102967834E-1,2.189496918E0,1.290705963E1,1.309787878E1
2.284451101E2,-1.840273132E0,5.815406799E-1,8.930129700E0,9.136301835E0
2.286454671E2,-5.358856201E-2,3.602558441E0,1.122575592E1,1.178977926E1
2.288458241E2,-2.373763733E0,-1.288670197E0,1.442804672E1,1.467869059E1
2.290461811E2,-1.357377319E0,2.154170380E0,4.929998016E0,5.548675847E0
2.292465383E2,-2.199526062E0,2.195933533E0,1.379591125E1,1.414168329E1
2.294468953E2,-1.156045990E0,-7.964936829E-1,5.047952728E0,5.239529680E0
2.296472523E2,6.405180359E-1,2.529440002E0,5.491630096E0,6.079994342E0
2.298476093E2,-9.150471497E-1,2.980302429E0,1.486708374E1,1.519044742E1
2.300479653E2,1.810784454E0,3.386108551E0,4.149670715E0,5.653710154E0
2.302483225E2,8.322692871E-1,2.192191315E0,8.973689117E0,9.274991714E0
2.304486795E2,4.203259277E-1,3.839365997E0,1.297082703E1,1.353365283E1
2.306490365E2,-1.005159760E0,4.029620361E-1,8.142168274E0,8.213868075E0
2.308493925E2,-4.186793518E-1,2.216141510E0,1.040516235E1,1.064678257E1
2.310497495E2,-2.530487823E0,-1.268761597E0,1.661380142E1,1.685323477E1
2.312501065E2,-1.039737854E0,1.721869354E0,4.700674896E0,5.112947619E0
2.314504625E2,-3.676354980E0,2.867586823E0,1.416773804E1,1.491520839E1
2.316508195E2,-2.722987518E0,-4.207749939E-1,6.996750183E0,7.519722451E0
2.318511755E2,9.101074219E-2,3.808081055E0,4.922513580E0,6.224219166E0
2.320515325E2,-2.960842896E-1,4.508025513E0,1.342243790E1,1.416233734E1
2.322518879E2,8.047265625E-1,1.732796631E0,4.729714508E0,5.101016402E0
2.324522449E2,-2.351310425E0,3.513942719E0,8.047864380E0,9.090906183E0
2.326526009E2,-1.835183716E-1,5.879024506E0,1.330148941E1,1.454394130E1
2.328529569E2,-1.179098053E0,7.972421265E-1,9.358239441E0,9.465860376E0
2.330533139E2,-9.596543884E-1,5.592969360E0,6.191724243E0,8.398791098E0
2.332536694E2,-2.775378571E0,-2.718347168E-1,1.603764954E1,1.627829300E1
2.334540254E2,-6.625222778E-1,3.349584503E0,4.502037964E0,5.650398034E0
2.336543814E2,-1.623823242E0,5.691614227E0,1.286260208E1,1.415901857E1
2.338547384E2,-2.946323090E0,1.372196503E0,5.220992889E0,6.150000792E0
2.340550944E2,-2.474354553E-1,3.976331177E0,4.813689880E0,6.248523361E0
2.342554509E2,-5.243745575E0,2.905009003E0,1.440454559E1,1.560214340E1
2.344558069E2,-7.575746155E-1,1.324745178E0,6.512357483E0,6.688771866E0
2.346561629E2,-3.612437897E0,2.176623688E0,9.873318329E0,1.073637802E1
2.348565189E2,-3.335064697E-1,4.809947662E0,1.224783051E1,1.316268115E1
2.350568749E2,-2.443219299E0,-2.679428101E-2,9.719438324E0,1.002185211E1
2.352572317E2,-2.559976501E0,3.081791382E0,9.214538269E0,1.004781734E1
2.354575877E2,-4.570445709E0,-1.948947144E0,1.505344620E1,1.585224310E1
2.356579437E2,-5.284011841E-1,2.829715576E0,4.845423889E0,5.636011952E0
2.358582997E2,-2.885399780E0,3.677253113E0,1.480750763E1,1.552771730E1
2.360586557E2,-4.333039398E0,9.520202637E-2,4.520449677E0,6.262488254E0
2.362590118E2,-6.396199036E-1,4.430486755E0,5.195246429E0,6.857762899E0
2.364593678E2,-2.297871552E0,6.216273193E0,1.002315674E1,1.201606995E1
2.366597238E2,-4.519102478E-1,2.495610352E0,5.647905121E0,6.191213625E0
2.368600788E2,-1.750310211E0,3.548071747E0,9.417516174E0,1.021479368E1
2.370604348E2,-4.200864258E0,8.740324402E-1,1.477307922E1,1.538359721E1
2.372607903E2,-2.354453888E0,7.117698669E-1,5.833818512E0,6.331153756E0
2.374611463E2,-5.418731689E-2,3.679947510E0,1.495046036E1,1.539679236E1
2.376615013E2,-1.084345093E0,5.766009521E-1,9.917775879E0,9.993525470E0
2.378618573E2,-9.168434143E-1,3.544179840E0,4.411326599E0,5.732505120E0
2.380622133E2,-2.240091705E0,3.124602356E0,1.344623840E1,1.398508055E1
2.382625677E2,-1.476679230E0,1.834584961E0,6.948999481E0,7.337225451E0
2.384629237E2,1.282083893E0,3.655248871E0,3.963757324E0,5.542197718E0
2.386632797E2,1.112187195E0,5.783373413E0,1.388317978E1,1.508068464E1
2.388636347E2,-6.083349609E-1,2.950664062E0,4.754862213E0,5.628961227E0
2.390639907E2,6.506968689E-1,5.844446411E0,1.089569229E1,1.238131943E1
2.392643460E2,-2.418071594E0,1.388662262E0,1.411684387E1,1.438960507E1
2.394647010E2,-5.626799011E-1,7.629634094E-1,6.782246246E0,6.848181217E0
2.396650570E2,-2.440225525E0,4.111051025E0,1.419543045E1,1.497884130E1
2.398654120E2,-1.161734161E0,-1.353635101E0,4.898413696E0,5.213099940E0
2.400657680E2,-1.226250000E0,3.911366272E0,5.738616486E0,7.052247468E0
2.402661233E2,-2.916535034E0,4.008663940E0,1.199231186E1,1.297655990E1
2.404664782E2,-1.034349060E-1,2.853815460E0,7.507039032E0,8.031848884E0
2.406668343E2,4.821473694E-1,5.698200531E0,8.046217804E0,9.871351292E0
2.408671893E2,9.056167603E-2,1.505718842E0,1.370699615E1,1.378974743E1
2.410675443E2,-6.315367126E-1,2.319726105E0,5.011278992E0,5.558136824E0
2.412679000E2,-2.474653931E0,2.357597351E0,1.397898056E1,1.439076353E1
2.414682550E2,-3.883673859E0,-2.161205750E0,1.142289597E1,1.225709122E1
2.416686100E2,-1.245410156E-1,1.979483643E0,3.727548523E0,4.222378944E0
2.418689650E2,-3.047213287E0,6.239025879E-1,1.493264740E1,1.525315448E1
2.420693200E2,2.295925598E0,3.883075104E0,6.194867706E0,7.663284708E0
2.422696745E2,-1.605112152E0,2.364033966E0,8.392597504E0,8.865705526E0
2.424700295E2,-3.172652435E0,2.834206238E0,1.321242462E1,1.388043994E1
2.426703845E2,-8.759783936E-1,3.333567810E-1,9.402696991E0,9.449294979E0
2.428707395E2,-5.108876038E-1,3.774101715E0,7.638765106E0,8.535548152E0
2.430710945E2,-3.474125519E0,-7.050338745E-2,1.574755280E1,1.612637398E1
2.432714498E2,-1.230291595E0,1.537303162E0,4.475992126E0,4.889930872E0
2.434718048E2,-2.478396149E0,2.546205139E0,1.292831543E1,1.340771971E1
2.436721598E2,-4.155209198E0,-1.992057495E0,1.176313843E1,1.263350633E1
2.438725148E2,8.797206116E-1,1.621128845E0,5.881419525E0,6.163851289E0
2.440728698E2,-6.402186584E-1,3.941154327E0,1.432161804E1,1.486779475E1
2.442732255E2,1.929337921E0,2.749033356E0,4.282294922E0,5.442203506E0
2.444735805E2,-1.820214844E-1,3.260070648E0,4.921316071E0,5.905975306E0
2.446739345E2,-1.486558685E0,3.198997650E0,1.419902298E1,1.463064237E1
2.448742895E2,2.941383362E-1,1.820364532E0,5.771248627E0,6.058676019E0
2.450746445E2,7.277865601E-1,3.530109100E0,8.503067780E0,9.235448295E0
2.452749990E2,1.242416382E-2,-4.794529724E-1,1.579769852E1,1.580497732E1
2.454753530E2,-1.513352966E0,1.665736084E0,6.083199921E0,6.486157196E0
2.456757080E2,-3.464994507E0,1.672023010E0,1.250828888E1,1.308660149E1
2.458760630E2,-4.269122314E0,-3.290756836E0,1.286963745E1,1.395285111E1
2.460764170E2,-4.046086121E-1,1.783541107E0,5.082081757E0,5.401137102E0
2.462767719E2,-1.633553009E0,2.398911438E0,1.718800735E1,1.743131861E1
2.464771259E2,1.861678619E0,3.217259674E0,2.818788300E0,4.664994595E0
2.466774809E2,-2.237846375E0,3.496429138E0,5.673052826E0,7.029687154E0
2.468778349E2,-2.121388550E0,3.461401978E0,1.297232391E1,1.359274736E1
2.470781899E2,-1.309626617E0,1.498982849E0,9.505682831E0,9.711852426E0
2.472785437E2,1.444795532E0,4.724325714E0,7.824379120E0,9.253518044E0
2.474788977E2,-1.656305695E0,3.719165955E0,1.228929428E1,1.294613061E1
2.476792527E2,-1.376836853E0,1.252894592E0,7.248975677E0,7.484188196E0
2.478796067E2,-3.034489746E0,2.773133240E0,1.006372238E1,1.087092012E1
2.480799607E2,-1.330133972E0,2.142494659E0,1.320973022E1,1.344829031E1
2.482803159E2,9.864486694E-2,1.271006927E0,6.757996674E0,6.877187540E0
2.484806699E2,-1.058149567E0,2.779420166E0,1.130688721E1,1.169147361E1
2.486810239E2,-1.441652069E0,-8.635542297E-1,1.027463379E1,1.041115681E1
2.488813789E2,-1.667532349E0,2.894830170E0,3.787873077E0,5.050612665E0
2.490817329E2,-1.355431366E0,2.814746704E0,1.252430557E1,1.290806815E1
2.492820867E2,-2.303859100E0,-4.197271729E-1,6.288572845E0,6.710446042E0
2.494824407E2,1.124162292E0,2.942880249E0,4.727469177E0,5.680955011E0
2.496827947E2,-6.069877625E-1,3.598067780E0,1.553125259E1,1.595413216E1
2.498831487E2,3.080593872E-1,2.223625946E0,4.437971191E0,4.973429524E0
2.500835027E2,-1.576970673E0,3.340752869E0,9.783505096E0,1.045774537E1
2.502838571E2,-1.813478851E0,6.511459351E-2,1.353784790E1,1.365892643E1
2.504842111E2,-8.861572266E-2,9.190887451E-2,6.135590973E0,6.136919144E0
2.506845651E2,4.345463562E-1,2.878065033E0,1.359098740E1,1.389917362E1
2.508849191E2,-1.976190491E0,-2.545007629E0,1.120764359E1,1.166163228E1
2.510852731E2,-9.202862549E-1,2.792143707E0,3.802542572E0,4.806487625E0
2.512856270E2,-1.624122620E0,1.964365082E0,1.368618942E1,1.392150442E1
2.514859810E2,-7.500901794E-1,1.888921967E0,5.374274139E0,5.745736158E0
2.516863350E2,5.587879944E-1,3.701352997E0,5.137017517E0,6.356194380E0
2.518866890E2,4.568499756E-1,4.506828003E0,1.149953659E1,1.235959353E1
2.520870430E2,-1.161135406E0,3.007246399E-1,7.685467987E0,7.778501714E0
2.522873960E2,-2.472707977E0,1.717678070E0,1.102487366E1,1.142858442E1
2.524877500E2,5.601351929E-1,3.694317627E-1,1.630574203E1,1.631954211E1
2.526881040E2,-1.518143005E0,6.700067139E-1,7.490722961E0,7.672326744E0
2.528884580E2,-8.247848511E-2,2.846480713E0,1.018796402E1,1.057846237E1
2.530888110E2,-3.000211029E0,-2.282453613E0,1.280033157E1,1.334388808E1
2.532891651E2,-5.655239868E-1,2.485880585E0,4.389771423E0,5.076368073E0
2.534895191E2,-2.423610077E0,3.104394379E0,1.282203644E1,1.341326838E1
2.536898721E2,-4.408183136E0,-1.902543640E0,7.999963989E0,9.330121901E0
2.538902261E2,-7.214996338E-1,2.098336487E0,6.436764679E0,6.808488618E0
2.540905791E2,3.393443298E-1,2.972668304E0,1.549457886E1,1.578080750E1
2.542909336E2,3.483256531E-1,1.603166199E0,4.784799957E0,5.058239145E0
2.544912866E2,-6.610253906E-1,3.293002167E0,4.838089142E0,5.889645523E0
2.546916406E2,-8.816665649E-1,2.033820648E0,1.700104614E1,1.714495064E1
2.548919936E2,-1.137484589E0,1.604064331E0,4.097878418E0,4.545272390E0
2.550923476E2,1.760489044E0,4.630171509E0,6.186485138E0,7.925301776E0
2.552927003E2,-1.106049957E0,3.975133667E0,1.286604492E1,1.351148201E1
2.554930543E2,7.015910339E-1,2.055226135E0,5.502257996E0,5.915321420E0
2.556934073E2,-1.257834320E0,2.673141174E0,9.523795166E0,9.971484608E0
2.558937603E2,-2.036515045E0,2.337389374E0,1.476230164E1,1.508430748E1
2.560941143E2,-3.820056152E-1,8.421487427E-1,9.001082153E0,9.048459688E0
2.562944666E2,5.251080322E-1,3.591032410E0,8.179141388E0,8.948162161E0
2.564948196E2,-2.285896454E0,-4.059707794E0,1.685345306E1,1.748557778E1
2.566951726E2,1.113684082E-1,1.922601929E0,4.770579529E0,5.144631196E0
2.568955266E2,-2.057621155E0,1.616039429E0,1.374142456E1,1.398828571E1
2.570958796E2,-1.066831512E0,-1.007704468E0,5.259163513E0,5.460073134E0
2.572962325E2,-5.999523926E-1,1.936223602E0,6.087690582E0,6.416298102E0
2.574965855E2,1.717229004E0,2.786006470E0,1.631651962E1,1.664149994E1
2.576969385E2,2.508333893E0,2.284549255E0,5.844147034E0,6.757585277E0
2.578972915E2,6.959028625E-1,3.482508087E0,7.717651062E0,8.495544790E0
2.580976445E2,-1.267863464E0,4.943919067E0,1.254825577E1,1.354653226E1
2.582979980E2,9.635462952E-1,1.943408661E0,7.774233398E0,8.071181055E0
2.584983510E2,1.647174683E0,4.879103851E0,7.489675140E0,9.089228380E0
2.586987040E2,3.680845642E-1,7.026388550E-1,1.499506760E1,1.501603276E1
2.588990570E2,-1.304686890E0,1.436562653E0,7.046746216E0,7.309073290E0
2.590994100E2,-2.877316589E0,1.738933868E0,1.261696289E1,1.305720469E1
2.592997631E2,-4.277055817E0,-3.780238953E0,1.328502365E1,1.445943520E1
2.595001161E2,-2.210902405E0,2.383044434E-1,8.005652161E0,8.308751108E0
2.597004691E2,7.514373779E-2,1.915566559E0,1.278311737E1,1.292606404E1
2.599008211E2,4.017645264E-1,2.107317810E0,4.972659302E0,5.415675731E0
2.601011741E2,-9.505233765E-1,3.160527649E0,6.060147858E0,6.900566771E0
2.603015273E2,-1.358275452E0,3.492836609E0,1.380998199E1,1.430945221E1
2.605018803E2,-1.927391968E0,3.053649902E-1,9.133856049E0,9.339990037E0
2.607022323E2,1.404080200E0,3.893703003E0,9.380543060E0,1.025314354E1
2.609025853E2,-4.650828552E-1,-7.604187012E-1,1.426653259E1,1.429435171E1
2.611029383E2,-2.548450470E0,6.593788147E-1,6.472540283E0,6.987357007E0
2.613032900E2,-2.673440552E0,1.799557800E0,1.345477066E1,1.383533687E1
2.615036430E2,-3.852987671E0,-1.043929138E0,9.860594788E0,1.063798062E1
2.617039960E2,4.846920776E-1,2.091151428E0,5.010979614E0,5.451399582E0
2.619043480E2,-3.667373657E-1,2.611619110E0,1.743873596E1,1.763702250E1
2.621047010E2,-5.292993164E-1,2.309846649E0,5.856720886E0,6.317968728E0
2.623050528E2,2.636018372E-1,4.658911743E0,2.980452118E0,5.536970235E0
2.625054058E2,-2.355651398E0,4.570296021E0,1.466709961E1,1.554221703E1
2.627057578E2,-9.087602234E-1,2.623145142E0,5.035528564E0,5.750068130E0
2.629061098E2,3.031196594E-1,5.681285706E0,5.502407684E0,7.914883393E0
2.631064628E2,-1.454974365E-1,3.115770721E0,1.019574783E1,1.066219821E1
2.633068151E2,5.484594727E-1,2.418820038E0,6.172564087E0,6.652221101E0
2.635071681E2,-2.438728638E0,2.492317200E0,8.901688843E0,9.560288000E0
2.637075201E2,-1.345252533E0,1.556912384E0,1.405172928E1,1.420157654E1
2.639078721E2,6.069877625E-1,2.104773102E0,6.440057831E0,6.802414925E0
2.641082241E2,9.967771912E-1,3.724255371E0,1.010563522E1,1.081607628E1
2.643085766E2,-1.171463928E0,-1.636846161E0,1.712992813E1,1.724778336E1
2.645089286E2,-2.050735474E-1,2.011517029E0,4.445455627E0,4.883680134E0
2.647092806E2,-1.430425415E0,2.013462982E0,1.489283020E1,1.509624263E1
2.649096326E2,-2.689457245E0,-2.452949066E0,1.487187378E1,1.531087095E1
2.651099846E2,-5.328918457E-2,1.231339417E0,6.783892822E0,6.894942953E0
2.653103377E2,3.302133179E-1,3.298840027E0,1.431892365E1,1.469771958E1
2.655106897E2,9.621990967E-1,1.425785065E0,6.469696198E0,6.694449868E0
2.657110417E2,-5.273533630E-1,3.373983765E0,5.010380859E0,6.063479560E0
2.659113937E2,-6.530918884E-1,3.285966797E0,1.389904678E1,1.429711888E1
2.661117457E2,-2.209405518E-1,2.182611237E0,4.076323242E0,4.629148703E0
2.663120982E2,9.846524048E-1,3.738026733E0,7.071744232E0,8.059277307E0
2.665124502E2,2.191442871E-1,3.694317627E0,1.218286560E1,1.273256538E1
2.667128022E2,7.379653931E-2,2.703827362E0,5.625601501E0,6.242076625E0
2.669131532E2,-2.311193848E-1,3.545527039E0,1.065978287E1,1.123633165E1
2.671135052E2,5.584886169E-1,6.524931335E-1,1.445603851E1,1.448152983E1
2.673138574E2,-5.773493958E-1,1.314266968E0,8.847501526E0,8.963197713E0
2.675142094E2,-1.483564911E0,3.218157806E0,8.414002991E0,9.129783724E0
2.677145614E2,7.679031372E-2,-4.746629333E-1,1.361658417E1,1.362507123E1
2.679149134E2,-6.010002136E-1,1.741628265E0,8.183182983E0,8.388024440E0
2.681152644E2,2.740800476E-1,3.364403687E0,9.822124786E0,1.038597455E1
2.683156156E2,-2.189047852E0,-1.453627167E0,1.168994064E1,1.198163906E1
2.685159676E2,1.068777466E-1,1.963766327E0,6.565796356E0,6.854012170E0
2.687163196E2,-1.356179810E-1,2.434986420E0,1.353485413E1,1.375281161E1
2.689166706E2,1.203347626E0,1.077908478E0,5.653742981E0,5.880029072E0
2.691170226E2,-3.737727356E-1,3.556005249E0,5.642815704E0,6.680288052E0
2.693173750E2,-8.855584717E-1,3.253035278E0,1.283670593E1,1.327205604E1
2.695177260E2,2.329156494E-1,3.148253174E0,6.621929626E0,7.335918465E0
2.697180780E2,3.878434753E-1,3.690425720E0,7.151977386E0,8.057322452E0
2.699184290E2,-7.861651611E-1,1.810934143E0,1.458162735E1,1.471466596E1
2.701187810E2,6.062393188E-1,1.814975739E0,6.061944122E0,6.356793971E0
2.703191317E2,-1.298399963E0,2.030527496E0,1.125269989E1,1.150791637E1
2.705194837E2,-8.331674194E-1,9.885443115E-1,1.447774338E1,1.453535143E1
2.707198347E2,-1.025966492E0,3.855981445E-1,8.327033844E0,8.398856220E0
2.709201867E2,-1.453776855E0,3.797453156E0,7.822582855E0,8.816287208E0
2.711205377E2,-1.544787598E-1,-5.352868652E-1,1.679133224E1,1.680057244E1
2.713208888E2,-2.048639832E0,1.173260193E0,5.628295898E0,6.103374424E0
2.715212408E2,-9.458830261E-1,3.758234711E0,1.140837616E1,1.204865426E1
2.717215918E2,-2.790197754E0,-1.807940369E0,1.287158340E1,1.329404044E1
2.719219428E2,-2.258802795E-1,1.153201904E0,5.794899445E0,5.912846701E0
2.721222938E2,-6.920109558E-1,3.508404236E0,1.210472809E1,1.262189453E1
2.723226465E2,1.137933655E0,9.910890198E-1,5.637426910E0,5.835900326E0
2.725229975E2,-3.465293884E-1,2.884202271E0,6.144272919E0,6.796381026E0
2.727233485E2,-2.248025208E0,1.844015350E0,1.393497208E1,1.423507839E1
2.729236995E2,-7.087760925E-1,3.383414154E0,3.320993958E0,4.793626576E0
2.731240505E2,1.611099701E0,4.828359375E0,5.223238220E0,7.293210130E0
2.733244006E2,1.218466187E0,3.645070038E0,1.271545807E1,1.328360152E1
2.735247516E2,4.067042542E-1,1.351240082E0,5.959856415E0,6.124634405E0
2.737251026E2,-1.094374237E0,2.805765381E0,1.416908524E1,1.448561185E1
2.739254536E2,7.888595581E-1,2.501448212E0,1.400293076E1,1.424645964E1
2.741258046E2,-1.681004333E0,1.228944397E-1,9.003776550E0,9.160178534E0
2.743261561E2,-3.721261597E-1,4.021986237E0,1.219753510E1,1.284891877E1
2.745265071E2,-1.712888031E0,-6.963519287E-1,7.970475311E0,8.182137135E0
2.747268581E2,-1.339714050E-1,3.300636292E0,6.197562103E0,7.022956948E0
2.749272091E2,-1.099463654E0,3.328478394E0,1.185325104E1,1.236070989E1
2.751275601E2,-1.599723358E0,-4.317022705E-1,4.947062531E0,5.217174461E0
2.753279114E2,-4.619393921E-1,3.692072296E0,5.191204834E0,6.386970602E0
2.755282624E2,-1.601819000E0,1.513802032E0,1.466724930E1,1.483191231E1
2.757286124E2,1.026714935E0,2.359243927E0,5.921236725E0,6.456099427E0
2.759289634E2,-8.414002991E-1,2.260599060E0,8.508306885E0,8.843616264E0
2.761293144E2,-1.023122406E0,2.714305573E0,1.363230148E1,1.393749898E1
2.763296647E2,-1.193019104E-1,1.958377533E0,7.809859314E0,8.052538607E0
2.765300147E2,-4.327500916E-1,2.589914246E0,1.139295822E1,1.169163913E1
2.767303657E2,-8.964857483E-1,-9.894424438E-1,1.602163284E1,1.607717021E1
2.769307157E2,-1.438059540E0,1.869013367E0,7.871680756E0,8.217334368E0
2.771310667E2,-1.188079376E0,3.026556244E0,1.073223221E1,1.121393702E1
2.773314166E2,-3.158132629E0,-1.033450928E0,9.923464050E0,1.046503518E1
2.775317676E2,-1.359622650E0,4.372407532E-1,7.647596741E0,7.779812924E0
2.777321176E2,-2.841540985E0,3.006048889E0,1.446801361E1,1.504772750E1
2.779324686E2,-1.611099701E0,-9.120533752E-1,6.936275940E0,7.179095174E0
2.781328186E2,-1.000369720E0,3.050356750E0,5.074597321E0,6.004744278E0
2.783331690E2,-1.941612396E0,2.768492889E0,1.197000824E1,1.243846891E1
2.785335200E2,-2.223775635E0,1.964215393E0,4.909340973E0,5.736283551E0
2.787338700E2,-4.596940613E-1,3.861968994E0,6.549779663E0,7.617462621E0
2.789342200E2,-1.855092316E0,2.887046356E0,1.287652313E1,1.332596158E1
2.791345710E2,4.764591980E-1,2.276016998E0,4.222120056E0,4.820120799E0
2.793349207E2,-3.417842560E0,2.564766541E0,1.066606979E1,1.149020104E1
2.795352708E2,2.507435760E0,4.843627625E0,1.204320602E1,1.322069491E1
2.797356208E2,-1.046922913E0,1.675166473E0,9.141789551E0,9.352782821E0
2.799359708E2,-1.511556702E0,3.485352173E0,1.030996033E1,1.098761873E1
2.801363207E2,8.092172241E-1,1.381926270E0,1.533201691E1,1.541542394E1
2.803366711E2,-1.646126862E0,2.373314667E0,6.501130829E0,7.113863803E0
2.805370221E2,-8.249345398E-1,3.535198517E0,1.114701965E1,1.172323303E1
2.807373721E2,-3.225941620E0,-1.997296600E0,1.212388824E1,1.270372226E1
2.809377221E2,6.459068298E-1,1.786235504E0,5.862259369E0,6.162298095E0
2.811380721E2,-1.689386902E0,2.531685333E0,1.452938599E1,1.484474708E1
2.813384216E2,3.665876770E-1,7.125183105E-1,7.735314331E0,7.776706029E0
2.815387716E2,-1.204545135E0,2.825524292E0,5.205574951E0,6.044214348E0
2.817391216E2,-2.236499176E0,2.300266571E0,1.366074234E1,1.403242802E1
2.819394706E2,-1.770967255E0,9.303153992E-1,6.648873596E0,6.943294021E0
2.821398206E2,5.403762817E-2,3.407963104E0,7.987390137E0,8.684211754E0
2.823401707E2,-1.915865936E0,3.564986572E0,1.179113022E1,1.246637170E1
2.825405207E2,6.605763245E-1,1.432670746E0,6.737639008E0,6.919876151E0
2.827408707E2,-1.768572235E0,2.532882843E0,9.621541901E0,1.010531602E1
2.829412207E2,1.965712280E0,4.218377838E0,1.434960983E1,1.508542471E1
2.831415697E2,-1.555265808E0,9.222322083E-1,8.573720856E0,8.762308674E0
2.833419196E2,-9.145980835E-2,3.456162872E0,9.848020935E0,1.043728619E1
2.835422696E2,-3.248993683E0,-2.306852875E0,1.632056122E1,1.679994788E1
2.837426196E2,3.049159241E-1,1.791474609E0,5.692512360E0,5.975537797E0
2.839429686E2,-2.515069885E0,3.429218903E0,1.182226547E1,1.256387996E1
2.841433186E2,-4.802612915E0,-2.106120300E0,7.633076935E0,9.260923119E0
2.843436696E2,-5.548960876E-1,1.756597137E0,6.084846497E0,6.357586024E0
2.845440186E2,-2.308200073E0,3.613485718E0,1.568962326E1,1.626497294E1
2.847443686E2,1.378932495E0,2.791245575E0,3.507206726E0,4.689670106E0
2.849447176E2,-6.622229004E-1,4.152514801E0,7.210206299E0,8.346795386E0
2.851450676E2,-9.782157898E-1,3.935466156E0,1.390877655E1,1.448788684E1
2.853454160E2,2.067201233E-1,3.642974396E0,4.532724152E0,5.818898856E0
2.855457660E2,2.327509918E0,4.717889099E0,8.545429688E0,1.003494636E1
2.857461160E2,-3.839515686E-1,1.095721436E-1,1.336405930E1,1.337002265E1
2.859464650E2,-1.131646729E0,1.715582428E0,7.350614319E0,7.632521094E0
2.861468140E2,-2.402354279E0,2.242786102E0,1.102921463E1,1.150847388E1
2.863471647E2,-3.048410797E0,3.731739807E-1,1.154668854E1,1.194814142E1
2.865475137E2,-4.993615723E-1,1.568887482E0,6.723867645E0,6.922511540E0
2.867478637E2,-2.152523804E-1,3.362008667E0,1.324984680E1,1.367142553E1
2.869482127E2,-1.862127686E-1,1.246907043E0,6.513704681E0,6.634591249E0
2.871485617E2,-1.198856964E0,3.316054230E0,4.698878632E0,5.874770980E0
2.873489111E2,-2.042352905E0,2.989433441E0,1.374337051E1,1.421225354E1
2.875492601E2,-1.695823517E0,1.662742310E0,4.214785309E0,4.837865706E0
2.877496091E2,4.236190796E-2,3.176095276E0,5.694458313E0,6.520447163E0
2.879499581E2,-2.970273285E0,1.907633057E0,1.406984161E1,1.450593087E1
2.881503081E2,1.210083618E0,2.166444855E0,6.613996124E0,7.064186464E0
2.883506569E2,-1.717229004E0,2.272723846E0,8.196804657E0,8.677658424E0
2.885510059E2,-2.371219025E0,3.764970703E0,1.312934738E1,1.386280804E1
2.887513549E2,-1.731748810E0,3.041674805E-1,8.330776062E0,8.514299830E0
2.889517039E2,-2.177072754E0,4.224964142E0,1.286469772E1,1.371460591E1
2.891520529E2,-2.478396149E0,-7.544311523E-1,1.458132797E1,1.480968397E1
2.893524016E2,9.250762939E-2,1.801354065E0,6.173312531E0,6.431424549E0
2.895527506E2,-4.167034607E0,1.102307739E0,1.466814743E1,1.528835533E1
2.897530996E2,-3.240162048E0,-2.533930664E0,1.256891281E1,1.322486385E1
2.899534486E2,-1.668131104E0,9.380992126E-1,8.416996765E0,8.631832138E0
2.901537976E2,-1.768272858E0,3.165766754E0,1.399993698E1,1.446191908E1
2.903541470E2,2.558180237E-1,1.924996948E0,5.133125610E0,5.488172250E0
2.905544960E2,-7.271878052E-1,2.718197479E0,5.613177338E0,6.278945729E0
2.907548450E2,-1.324745178E0,2.828518066E0,1.560430069E1,1.591381991E1
2.909551940E2,-2.519710236E0,7.882608032E-1,3.599115601E0,4.463622730E0
2.911555430E2,7.210505676E-1,4.146527252E0,7.356003113E0,8.474926783E0
2.913558923E2,8.755293274E-1,3.420836334E0,1.228180984E1,1.277933981E1
2.915562403E2,-2.177821198E0,1.071322174E0,6.630012817E0,7.060290810E0
2.917565893E2,-1.206341400E0,3.396137695E0,8.240364075E0,8.994031960E0
2.919569383E2,-7.144642639E-1,1.357377319E0,1.540117310E1,1.547737268E1
2.921572873E2,-4.460723877E-1,6.224057007E-1,1.122620499E1,1.125229078E1
2.923576355E2,-1.695673828E0,4.730912018E0,9.330547028E0,1.059792178E1
2.925579845E2,-1.551523590E0,-1.015488281E0,1.383198624E1,1.395572589E1
2.927583335E2,-7.551795959E-1,2.257455597E0,5.564229126E0,6.052028401E0
2.929586815E2,-3.072211304E0,2.855162659E0,1.286694305E1,1.353324276E1
2.931590305E2,-4.028123474E-1,2.681823120E0,4.932093658E0,5.628497214E0
2.933593792E2,-1.478774872E0,3.655548248E0,4.780309296E0,6.196867360E0
2.935597272E2,-2.307301941E0,4.017944641E0,1.273461823E1,1.355131074E1
2.937600762E2,3.329077148E-1,2.891237640E0,5.089117126E0,5.862524692E0
2.939604242E2,-9.758207703E-1,3.660338287E0,8.093220062E0,8.935911455E0
2.941607732E2,-4.508624268E-1,4.565805359E0,1.217972214E1,1.301520214E1
2.943611211E2,-7.750881958E-1,3.115471344E0,4.757107544E0,5.739076197E0
2.945614701E2,1.278191986E0,4.924459534E0,6.981182556E0,8.638343958E0
2.947618181E2,1.204994202E-1,1.703906708E0,1.554247925E1,1.563606342E1
2.949621661E2,7.448510742E-1,2.437082062E0,5.863456879E0,6.393301077E0
2.951625151E2,-1.130898285E0,2.757715302E0,1.423719360E1,1.454584498E1
2.953628626E2,-2.410138092E0,4.017645264E-1,1.411564636E1,1.432555942E1
2.955632106E2,-1.387165375E0,1.212328949E0,5.550457764E0,5.848209183E0
2.957635586E2,-1.538949738E0,3.481609955E0,1.276380753E1,1.331933770E1
2.959639076E2,-1.908231812E0,-8.649014282E-1,7.625592499E0,7.908164394E0
2.961642556E2,-5.628295898E-1,4.038901062E0,3.182082825E0,5.172538066E0
2.963646039E2,-2.174827423E0,2.788401489E0,1.395952103E1,1.440046126E1
2.965649519E2,-2.185155945E0,1.678160248E0,5.665269012E0,6.299714383E0
2.967653009E2,1.024020538E0,3.109483795E0,5.449567566E0,6.357302430E0
2.969656489E2,-8.925938416E-1,4.323908386E0,1.370804398E1,1.440150607E1
2.971659969E2,-5.069956970E-1,3.902384949E-1,9.119485931E0,9.141901026E0
2.973663455E2,-1.533560944E0,2.617906036E0,8.986562347E0,9.484911386E0
2.975666935E2,5.315446472E-1,5.268593903E0,1.126407623E1,1.244668770E1
2.977670415E2,-1.602417755E0,1.179547119E-1,1.214723969E1,1.225304403E1
2.979673895E2,-3.121009827E0,2.881807251E0,1.135209320E1,1.212087189E1
2.981677375E2,-4.794080658E0,-4.157903595E0,1.723770401E1,1.836871828E1
2.983680850E2,-1.879192200E0,1.224753113E0,6.196813660E0,6.590287023E0
2.985684330E2,-3.140319672E0,2.920277252E0,1.167572021E1,1.243833065E1
2.987687810E2,-2.596949615E0,8.500822449E-1,7.004833374E0,7.518941264E0
2.989691290E2,3.308120728E-1,3.818409576E0,5.354814606E0,6.585114105E0
2.991694770E2,-2.767744446E0,3.720064087E0,1.348545685E1,1.426032372E1
2.993698235E2,6.788383484E-1,2.679577789E0,6.232738953E0,6.818210431E0
2.995701715E2,-9.315129089E-1,3.428620148E0,7.158563690E0,7.991757411E0
2.997705195E2,-2.068847809E0,2.591111755E0,1.460587692E1,1.497750420E1
2.999708675E2,-6.388714600E-1,2.157912598E0,6.564898224E0,6.939930274E0
3.001712155E2,8.352630615E-1,4.420158234E0,8.176746368E0,9.332451145E0
3.003715633E2,-1.576521606E0,2.039658508E0,1.292053162E1,1.317519504E1
3.005719113E2,-7.885601807E-1,1.017583923E0,8.042924652E0,8.145301784E0
3.007722593E2,-1.151854706E0,1.720522156E0,1.194650711E1,1.212460300E1
3.009726063E2,-3.852987671E-1,3.783532104E0,1.299552567E1,1.354057819E1
3.011729543E2,-1.056652679E0,1.317260742E-2,1.057326279E1,1.062593875E1
3.013733023E2,2.249821472E-1,3.194956055E0,9.309141541E0,9.844718248E0
3.015736492E2,-3.259471893E0,-2.209555206E0,1.461889984E1,1.513996446E1
3.017739973E2,7.982899475E-1,2.379601593E0,3.458857269E0,4.273577446E0
3.019743443E2,-2.608924713E0,3.506308594E0,1.415621201E1,1.481549953E1
3.021746923E2,-4.428540802E0,-1.807640991E0,1.118084930E1,1.216104152E1
3.023750395E2,-2.592608643E-1,1.577719116E0,5.094206543E0,5.339227857E0
3.025753875E2,3.528163147E-1,2.987337799E0,1.175879745E1,1.213746201E1
3.027757345E2,2.911445618E-1,1.322948914E0,7.606432343E0,7.726109756E0
3.029760825E2,-1.573976898E0,2.596500549E0,5.736820221E0,6.490787674E0
3.031764295E2,-2.479893036E0,1.654808807E0,1.369861359E1,1.401928229E1
3.033767754E2,-1.005010071E0,2.979404297E0,2.648292847E0,4.111003552E0
3.035771234E2,-3.519181824E-1,2.753074951E0,5.826932831E0,6.454178051E0
3.037774704E2,9.967771912E-1,2.994822235E0,1.201162170E1,1.241940341E1
3.039778174E2,-8.867559814E-1,3.267704773E-1,7.840994568E0,7.897740875E0
3.041781654E2,-7.926616516E0,4.516108704E-1,1.475167374E1,1.675252458E1
3.043785133E2,-3.630400543E0,3.357518005E-1,1.282532959E1,1.333347728E1
3.045788603E2,-4.813989258E-1,1.307830353E0,6.497987366E0,6.645750895E0
3.047792073E2,-1.936073914E0,3.401227112E0,1.130733627E1,1.196547457E1
3.049795543E2,-2.750829620E0,-1.116378479E0,9.815388794E0,1.025452201E1
3.051799013E2,-3.323089600E-2,3.587739258E0,4.640949097E0,5.866121870E0
3.053802481E2,-1.270857239E0,4.740342407E0,1.132889145E1,1.234624258E1
3.055805961E2,-3.393293610E0,3.379971313E-1,6.916367340E0,7.711343642E0
3.057809431E2,-6.313870239E-1,3.446882172E0,4.071233826E0,5.371646967E0
3.059812901E2,-8.752299500E-1,5.479505310E0,1.336854996E1,1.447443035E1
3.061816371E2,2.334994354E0,3.364403687E0,6.238876190E0,7.462907404E0
3.063819838E2,-1.881587219E0,3.582500153E0,8.143665161E0,9.093621944E0
3.065823298E2,-1.383123779E-1,8.195457458E-1,1.832983292E1,1.834866644E1
3.067826768E2,-1.834584961E0,3.143463135E-3,8.012986908E0,8.220320617E0
3.069830238E2,-1.904040527E-1,3.230581970E0,9.837692413E0,1.035630753E1
3.071833708E2,-1.534608765E0,-1.519490204E0,9.998607788E0,1.022917554E1
3.073837186E2,-1.830992432E0,1.280437317E0,5.934409332E0,6.341077758E0
3.075840656E2,-1.232686615E0,3.488795013E0,1.218585938E1,1.273524148E1
3.077844126E2,-3.081192627E0,-1.993704071E0,7.329358521E0,8.196834770E0
3.079847586E2,-1.624122620E-1,2.357148285E0,4.342020721E0,4.943244858E0
3.081851056E2,-1.456620941E0,3.471281433E0,1.500689301E1,1.547185758E1
3.083854518E2,9.419911194E-1,1.740281067E0,5.809868317E0,6.137629454E0
3.085857978E2,-2.117197266E0,2.702929230E0,7.625592499E0,8.362894932E0
3.087861448E2,-1.524878998E0,2.996169434E0,1.490375748E1,1.527822876E1
3.089864917E2,-1.796264648E-1,8.080197144E-1,7.788603516E0,7.832464890E0
3.091868378E2,-1.496887207E-4,4.381388855E0,1.043839325E1,1.132062816E1
3.093871846E2,-5.285508728E-1,-8.352630615E-1,1.610680573E1,1.613710696E1
3.095875306E2,-2.671045532E0,-2.606080627E-1,8.721463623E0,9.125038549E0
3.097878776E2,-2.653082886E0,2.521805878E0,1.006387207E1,1.070886898E1
3.099882236E2,-3.569776611E0,-2.716700592E0,1.651485718E1,1.711327773E1
3.101885706E2,-1.360071716E0,3.915856934E-1,8.427624664E0,8.545641691E0
3.103889167E2,-1.649569702E-1,1.785187683E0,1.086889801E1,1.101576370E1
3.105892638E2,-2.365231476E0,-1.800006866E0,1.146870071E1,1.184759219E1
3.107896098E2,6.718029785E-1,3.215613098E0,3.227288818E0,4.605092828E0
3.109899558E2,-9.954299927E-2,2.641706543E0,1.431443298E1,1.455649387E1
3.111903028E2,-1.898951111E0,2.900967407E-1,6.480623474E0,6.759338137E0
3.113906491E2,-6.526428223E-2,2.950514374E0,6.106102295E0,6.781908266E0
3.115909951E2,-3.199297028E0,4.141138458E0,1.462743210E1,1.553532423E1
3.117913421E2,3.302731934E0,2.388133850E0,3.426524506E0,5.324687005E0
3.119916881E2,-3.572171631E0,2.936293945E0,8.901389465E0,1.003080090E1
3.121920341E2,-2.219135284E0,3.399430847E0,1.355131989E1,1.414634094E1
3.123923800E2,-6.966513062E-1,-1.306782532E-1,1.146241379E1,1.148430798E1
3.125927260E2,2.739303589E-2,5.045707397E0,9.768985291E0,1.099513470E1
3.127930730E2,-3.752546539E0,-1.178199921E0,1.387090530E1,1.441775900E1
3.129934190E2,-1.132844238E0,1.537901917E0,4.735103302E0,5.105847790E0
3.131937650E2,-4.375101929E0,4.331243134E0,9.531728668E0,1.134702760E1
3.133941112E2,-4.505780182E0,-2.618355103E0,1.096694412E1,1.214214569E1
3.135944572E2,6.899153137E-1,2.543361053E0,4.956941986E0,5.613906166E0
3.137948032E2,-3.311862946E0,2.690654755E0,1.678714096E1,1.732097459E1
3.139951492E2,1.074914703E0,1.431622925E0,4.643493805E0,4.976647520E0
3.141954952E2,-6.273454285E-1,3.925287323E0,5.572012939E0,6.844616209E0
3.143958413E2,-2.454895020E0,3.557801514E0,1.304477325E1,1.374229131E1
3.145961862E2,-3.568579102E-1,3.532653809E0,3.772904205E0,5.180906932E0
3.147965323E2,1.040336609E-1,3.422782288E0,6.884184265E0,7.688839613E0
3.149968783E2,-4.520599365E-2,4.127067719E0,1.355820557E1,1.417249695E1
3.151972243E2,2.691403198E-1,1.418150940E0,7.400909729E0,7.540361624E0
3.153975700E2,-1.286275177E0,2.333497467E0,1.018392242E1,1.052672742E1
3.155979160E2,-1.642983398E0,2.005080414E0,1.434601730E1,1.457833853E1
3.157982610E2,3.318598938E-1,1.711840210E0,5.904022522E0,6.156135950E0
3.159986070E2,-3.055146790E-1,3.045267334E0,1.412372955E1,1.445153033E1
3.161989530E2,1.496887207E-1,1.041833496E0,8.171058197E0,8.238568796E0
3.163992978E2,-9.605525208E-1,3.684438171E0,6.348897400E0,7.403123934E0
3.165996438E2,-3.867956543E-1,4.146976318E0,1.084225342E1,1.161470975E1
3.167999898E2,-3.752995605E0,1.259181519E0,6.075565796E0,7.251414610E0
3.170003348E2,9.017248535E-1,3.536246338E0,3.791315918E0,5.262339999E0
3.172006808E2,-3.302731934E0,3.050656128E0,1.657503204E1,1.717399861E1
3.174010261E2,1.356329498E0,3.445684662E0,5.035678253E0,6.250634205E0
3.176013721E2,-2.526146851E0,2.576891327E0,7.367678833E0,8.203930656E0
3.178017171E2,-2.988235931E0,4.213438110E0,1.364233063E1,1.458752205E1
3.180020631E2,-1.385668488E0,8.813671875E-1,9.180109863E0,9.325840572E0
3.182024081E2,2.341281281E0,5.698200531E0,1.005998016E1,1.179636759E1
3.184027536E2,-7.893086243E-1,6.685098267E-1,1.458147766E1,1.461811904E1
3.186030986E2,4.709207153E-1,2.313738556E0,4.421206055E0,5.012206640E0
3.188034436E2,-2.384241943E0,2.893632660E0,1.246233444E1,1.301412692E1
3.190037896E2,-3.838767242E0,-1.423090668E0,1.450438797E1,1.507111779E1
3.192041346E2,2.661465454E-1,1.232387238E0,6.728058929E0,6.845172697E0
3.194044800E2,-8.608598328E-1,2.341131592E0,1.343231735E1,1.366195909E1
3.196048260E2,-1.074166260E0,-1.104702759E0,6.659950562E0,6.835871767E0
3.198051710E2,-1.653012543E0,2.788551178E0,5.392985229E0,6.292277634E0
3.200055160E2,-1.742676086E0,1.831740875E0,1.335522766E1,1.359243541E1
3.202058610E2,-1.620530090E0,1.517993317E0,5.289999390E0,5.737117310E0
3.204062053E2,5.289999390E-1,3.049907684E0,6.036197662E0,6.783617032E0
3.206065513E2,6.438111877E-1,3.306923218E0,1.336989716E1,1.378783464E1
3.208068963E2,1.935475159E-1,1.205892334E0,7.727680206E0,7.823597531E0
3.210072413E2,-2.749781799E0,2.216141510E0,1.191537186E1,1.242773791E1
3.212075863E2,2.335144043E-1,1.714684296E0,1.723051895E1,1.731720112E1
3.214079318E2,-1.766775970E0,7.358697510E-1,5.812263336E0,6.119265210E0
3.216082768E2,-1.848356323E0,2.386187897E0,1.241173965E1,1.277347232E1
3.218086218E2,-2.866988068E0,-1.760938110E0,1.214918564E1,1.260647593E1
3.220089668E2,-4.616400146E-1,3.150947571E0,3.081492004E0,4.431385232E0
3.222093118E2,-3.129242706E0,2.783012695E0,1.362242203E1,1.425158593E1
3.224096568E2,-2.999312897E0,8.647517395E-1,3.839066620E0,4.947939565E0
3.226100018E2,3.227288818E-1,2.759212189E0,5.019062805E0,5.736584112E0
3.228103468E2,-1.562301178E0,5.359454956E0,1.305180862E1,1.419557152E1
3.230106918E2,2.486179962E0,3.198548584E0,4.851710815E0,6.320672566E0
3.232110358E2,-1.984722748E0,3.358715515E0,7.914042664E0,8.823387421E0
3.234113806E2,-1.068777466E0,5.150040436E0,1.231878296E1,1.339468609E1
3.236117256E2,-8.607101440E-2,1.625020752E0,9.558522949E0,9.696053921E0
3.238120706E2,-5.936654663E-1,3.211571503E0,8.158634033E0,8.788056639E0
3.240124146E2,-3.194506989E0,-9.816586304E-1,1.612461868E1,1.646729657E1
3.242127596E2,-1.294508057E0,1.844614105E0,6.245013428E0,6.639167494E0
3.244131051E2,-4.618795166E0,1.850002899E0,1.214259933E1,1.312244254E1
3.246134491E2,-2.439926147E0,3.192860413E-1,1.301573364E1,1.324630158E1
3.248137941E2,-2.355352020E0,2.131567383E-1,7.046147461E0,7.432449998E0
3.250141391E2,-5.658233643E-1,3.478915558E0,1.106543930E1,1.161322334E1
3.252144831E2,-2.189496918E0,-1.434167633E0,1.227088257E1,1.254692363E1
3.254148293E2,-1.888023834E0,2.741848297E0,3.310665436E0,4.694983675E0
3.256151733E2,-2.072140961E0,4.365222473E0,1.164997375E1,1.261232825E1
3.258155183E2,-4.253404999E0,-3.559597778E-1,7.771838379E0,8.866771297E0
3.260158623E2,8.939410400E-1,3.050955505E0,3.173251190E0,4.491879695E0
3.262162073E2,-1.795965271E0,1.607207794E0,1.791744049E1,1.807880753E1
3.264165503E2,7.107220459E-1,2.501448212E0,5.135221252E0,5.756115556E0
3.266168953E2,-1.028211823E0,3.194357300E0,7.835306396E0,8.523682563E0
3.268172393E2,-1.189576263E0,2.769690399E0,1.520717651E1,1.550304790E1
3.270175843E2,-1.639241180E0,1.173559570E-1,9.586514740E0,9.726363603E0
3.272179283E2,8.050259399E-1,3.490591278E0,7.520810394E0,8.330359129E0
3.274182721E2,-1.072070618E0,-1.113384705E0,1.614527573E1,1.621909027E1
3.276186171E2,-1.163530426E0,1.342707825E0,5.544170837E0,5.821898112E0
3.278189611E2,-3.390449524E0,2.157164154E0,1.277638138E1,1.339344714E1
3.280193051E2,-2.509082336E0,-1.266965332E0,1.045066772E1,1.082206779E1
3.282196491E2,-9.541159058E-1,1.239123230E0,6.747967529E0,6.926819567E0
3.284199935E2,-1.274599457E0,3.261567535E0,1.363963623E1,1.408197795E1
3.286203375E2,-4.578977966E-1,1.542991333E0,5.788013763E0,6.007628149E0
3.288206815E2,-1.213975525E0,3.331621857E0,5.419180756E0,6.476184126E0
3.290210255E2,-3.559298401E0,3.209625549E0,1.451142334E1,1.528239865E1
3.292213695E2,-1.792821808E0,2.339185638E0,5.550906830E0,6.284788471E0
3.294217142E2,3.851490784E-1,3.641028442E0,6.982978821E0,7.884631960E0
3.296220582E2,-2.168690186E0,1.758842468E0,1.418106033E1,1.445334619E1
3.298224022E2,1.261426849E0,1.755549316E0,6.450386353E0,6.802987226E0
3.300227462E2,-2.199076996E0,2.412682800E0,1.183394119E1,1.227595789E1
3.302230902E2,-2.718496857E0,-7.424560547E-2,1.606414444E1,1.629271230E1
3.304234345E2,-1.366508331E0,1.428329773E0,8.843310242E0,9.061545508E0
3.306237785E2,-2.030377808E0,4.216880951E0,7.819888458E0,9.113461170E0
3.308241225E2,-3.389252014E0,-2.305505676E0,7.518714752E0,8.563495616E0
3.310244665E2,-1.095122681E0,2.599494324E0,4.844675446E0,5.606027524E0
3.312248105E2,-1.221909027E0,4.774172058E0,1.106244553E1,1.211046991E1
3.314251543E2,-4.573589172E0,-5.685177612E-1,6.650520172E0,8.091374971E0
3.316254973E2,9.596543884E-1,3.830534363E0,3.785777435E0,5.470469892E0
3.318258413E2,-1.205143890E0,3.285966797E0,1.494327530E1,1.534768472E1
3.320261853E2,6.641688538E-1,1.728755035E0,6.424340515E0,6.685945355E0
3.322265293E2,-1.391356659E0,3.163820801E0,5.868845673E0,6.810945965E0
3.324268720E2,6.988966370E-1,5.865851898E0,1.444121933E1,1.560273985E1
3.326272160E2,-8.059240723E-1,2.580184479E0,5.961053925E0,6.545305909E0
3.328275600E2,2.709365845E-2,4.159699860E0,7.804769897E0,8.844109347E0
3.330279030E2,8.144563293E-1,3.759132843E0,1.461396011E1,1.511165937E1
3.332282470E2,1.028211823E0,2.835403748E0,4.776118011E0,5.648719963E0
3.334285904E2,-1.628313904E0,2.902913361E0,1.197644485E1,1.243034768E1
3.336289334E2,-5.289999390E-1,4.266427917E0,1.177705948E1,1.253719977E1
3.338292774E2,-1.354084167E0,7.798782349E-1,9.901908875E0,1.002444778E1
3.340296204E2,-9.970765686E-1,3.071762238E0,1.186417831E1,1.229587785E1
3.342299653E2,-5.330415344E-1,-1.104253693E0,1.514131348E1,1.519088158E1
3.344303083E2,-2.029030609E0,1.233734436E0,7.154222717E0,7.538034794E0
3.346306513E2,-1.424437866E0,3.035687256E0,1.230605942E1,1.275474495E1
3.348309953E2,-1.761686554E0,-2.085163879E-1,1.217657867E1,1.230512441E1
3.350313383E2,-1.528321838E0,1.418600006E0,6.844367065E0,7.154967096E0
3.352316820E2,-7.280859375E-1,4.196223907E0,8.584947510E0,9.583304647E0
3.354320250E2,5.789959717E-1,3.936813354E-1,1.204320602E1,1.206354146E1
3.356323680E2,-5.266049194E-1,2.520907745E0,4.582121429E0,5.256246322E0
3.358327120E2,-1.091380463E0,4.994513855E0,1.200937637E1,1.305225654E1
