"time","Gyroscope x","Gyroscope y","Gyroscope z","abs Gyroscope"
2.106446251E-1,2.909157574E-1,-5.722463727E-1,-1.398482174E-1,6.570048804E-1
4.110506251E-1,-3.397341669E-1,3.096158057E-2,-3.018555045E-1,4.555158276E-1
6.114566252E-1,6.470826268E-1,-1.249887198E-1,1.160270810E0,1.334378679E0
8.118616249E-1,-2.308406234E-1,5.755240843E-2,4.605672657E-1,5.183839112E-1
1.012267625E0,6.390091032E-2,-9.486175776E-1,3.643562272E-2,9.514652854E-1
1.212673500E0,-8.111399412E-1,9.665817022E-1,-1.285459280E0,1.801286693E0
1.413078500E0,6.800542474E-1,-1.910665035E0,-4.452587962E-1,2.076383888E0
1.613484500E0,6.777618080E-2,-1.042003155E0,1.370581627E0,1.723037487E0
1.813890500E0,1.025762081E0,7.333869934E-1,1.375250697E0,1.865839974E0
2.014295500E0,1.414553881E0,-2.440811545E-1,-4.368169308E-1,1.500449040E0
2.214701334E0,3.874519765E-1,5.006487668E-2,-3.270947337E-1,5.095257509E-1
2.415107334E0,-1.863489985E0,1.216679811E-1,-1.163890719E0,2.200463504E0
2.615513334E0,4.699461460E-1,-9.173670411E-2,-7.725911736E-1,9.089346097E-1
2.815918333E0,-3.734249771E-1,-4.292599857E-1,-2.465038896E-1,6.200600909E-1
3.016324333E0,-6.354845166E-1,6.851778030E-1,1.618694663E-1,9.484254935E-1
3.216729959E0,-1.002742499E-1,-1.616997570E-1,-8.759282827E-1,8.963548924E-1
3.417135959E0,-1.694597602E-1,4.779473692E-2,-6.046454906E-1,6.297595704E-1
3.617541959E0,-5.798766017E-1,4.638649225E-1,-1.076668426E-1,7.503463790E-1
3.817947959E0,-9.982927442E-1,-6.864986420E-1,1.464442164E-1,1.220374818E0
4.018353959E0,7.971386313E-1,9.085502625E-1,2.067418993E-1,1.226228278E0
4.218760708E0,4.151375890E-1,2.041590363E-1,-3.525013030E-1,5.816161092E-1
4.419166708E0,5.691587925E-1,-5.888831019E-1,4.581167549E-2,8.202583425E-1
4.619572708E0,-3.992976844E-1,-4.718773961E-1,-8.997935057E-1,1.091666282E0
4.819978708E0,9.507822990E-1,1.808931708E0,-1.760554612E-1,2.051150026E0
5.020384708E0,7.139339447E-1,6.604500413E-1,7.853468060E-1,1.250066214E0
5.220790708E0,-1.488982916E0,6.067265272E-1,4.897955060E-1,1.680799465E0
5.421196708E0,1.285352468E0,-1.050124407E0,3.368463814E-1,1.693622662E0
5.621603708E0,4.128699303E-1,3.740961850E-1,-1.368526220E0,1.477590454E0
5.822009708E0,1.433967203E-1,-2.497889251E-1,-3.853624463E-1,4.811042938E-1
6.022415708E0,5.347874761E-1,6.351169348E-1,-2.725028694E-1,8.738586723E-1
6.222821209E0,-3.778893948E-1,2.227096446E-2,5.243279934E-1,6.466964011E-1
6.423228208E0,4.417001903E-1,7.113766670E-1,2.157266289E-1,8.646928928E-1
6.623634208E0,3.730989695E-1,-4.977822602E-1,-9.078087658E-2,6.286741502E-1
6.824040208E0,-5.695660114E-1,4.540989995E-1,-4.341827631E-1,8.480129801E-1
7.024446208E0,4.394940436E-1,-4.671739042E-1,-2.053362727E-1,6.734756536E-1
7.224852209E0,4.048424363E-1,6.898727417E-1,-4.592155665E-2,8.012057085E-1
7.425259208E0,-5.080623031E-1,3.786543906E-1,-2.437554002E-1,6.789132098E-1
7.625665208E0,1.390262604E0,6.019288301E-1,-5.551027656E-1,1.613470639E0
7.826071208E0,-8.469095826E-2,1.671643853E0,-1.164060757E-1,1.677830774E0
8.026477208E0,-1.917052567E-1,2.080153823E-1,1.745126992E-1,3.323792817E-1
8.226885125E0,2.958237529E-1,-5.177966356E-1,3.586618006E-1,6.958903188E-1
8.427291125E0,-1.444062710E0,-2.043891430E0,3.433883429E0,4.249042797E0
8.627697125E0,-9.691848159E-1,9.759258032E-1,1.679682612E0,2.170963855E0
8.828103125E0,2.130498141E-1,-2.465876937E-1,-1.143710256E0,1.189230366E0
9.028510125E0,-1.714436769E0,-3.814141154E-1,6.663941741E-1,1.878523718E0
9.228915459E0,-7.415282726E-1,1.644583821E0,4.285610020E-1,1.854234251E0
9.429321459E0,1.208762527E0,-3.599832952E-1,-8.899651766E-1,1.543610324E0
9.629728458E0,7.972620130E-1,-2.883298099E-1,-7.621245980E-1,1.139997675E0
9.830134458E0,4.419481754E-1,-3.105897605E-1,-2.726438940E-1,6.050775835E-1
1.003054146E1,-1.160641193E0,-7.422838211E-1,-6.073985100E-1,1.505658062E0
1.023094696E1,3.026546836E-1,8.198186755E-1,-7.684536576E-1,1.163711108E0
1.043135296E1,5.668717027E-1,-6.289744377E-1,1.697912216E-1,8.635863764E-1
1.063175996E1,1.375203371E0,3.708102107E-1,-8.637892008E-1,1.665777989E0
1.083216596E1,-1.265517622E-1,2.845396519E0,8.590731621E-1,2.974945948E0
1.103257296E1,2.283424586E-1,1.530887604E0,1.099774480E0,1.898752496E0
1.123297946E1,-9.749276638E-1,-1.192794561E0,-1.267353058E0,1.994850017E0
1.143338546E1,1.886690974E0,7.135558128E-1,-4.900146425E-1,2.075783968E0
1.163379246E1,-1.503920555E0,-6.553969383E-1,5.482734442E-1,1.729718460E0
1.183419846E1,-5.183936357E-1,-3.292970955E-1,-5.185706615E-1,8.037935492E-1
1.203460546E1,2.246002555E-1,-2.689172983E0,1.513606161E-1,2.702777580E0
1.223501271E1,1.232875705E0,-1.971349716E0,2.826392464E-2,2.325295907E0
1.243541871E1,-1.446454078E-1,1.342613816E0,-3.417527378E-1,1.392956958E0
1.263582571E1,7.195922732E-2,-1.038114578E-1,9.339447320E-2,1.570906642E-1
1.283623271E1,2.099347264E-1,-4.258399904E-1,-4.796749726E-2,4.771930087E-1
1.303663971E1,-2.690941393E-1,-4.575516880E-1,1.076795220E0,1.200522032E0
1.323704696E1,-2.011111826E-1,2.668067217E-1,4.475343227E-1,5.584966468E-1
1.343745396E1,1.548637599E-1,1.087644994E-1,-6.114093065E-1,6.400264374E-1
1.363786096E1,-6.422849000E-2,-1.536749899E-1,-2.222413421E-1,2.777274124E-1
1.383826896E1,6.588330865E-2,2.121267915E-1,3.146947622E-1,3.851897966E-1
1.403867596E1,-1.275490522E-1,5.466031432E-1,2.609477639E-1,6.189810113E-1
1.423908400E1,3.489850163E-1,2.238197774E-1,5.182055235E-1,6.636435782E-1
1.443949100E1,-3.439399302E-1,6.546173245E-2,-4.088485241E-1,5.382722635E-1
1.463989900E1,-4.251373932E-2,-1.849910617E-1,-2.418642044E-1,3.074530929E-1
1.484030700E1,1.004986931E-3,-5.606748462E-1,-5.036852360E-1,7.536949715E-1
1.504071500E1,-2.056267709E-1,3.935571015E-2,2.567537427E-1,3.312909978E-1
1.524112196E1,2.139432132E-1,3.886602223E-1,4.429583549E-1,6.269294786E-1
1.544152996E1,-3.843861818E-1,-4.957087636E-1,-4.751752615E-1,7.869380180E-1
1.564193796E1,1.040756822E0,1.293276548E-1,-9.139812738E-2,1.052736445E0
1.584234596E1,2.424859814E-2,-2.355246991E-1,-5.225608945E-1,5.736983239E-1
1.604275396E1,6.166328788E-1,9.530500174E-1,8.176539838E-2,1.138079972E0
1.624316246E1,7.213938236E-2,-2.513321303E-2,1.306002140E-1,1.513016351E-1
1.644357046E1,-4.000992179E-1,-8.242548108E-1,-5.884304643E-1,1.088910368E0
1.664397846E1,-4.329040274E-2,-8.058931828E-1,-1.613142014E0,1.803764130E0
1.684438646E1,-1.954461187E-1,-3.658264577E-1,-5.187026858E-1,6.641390357E-1
1.704479446E1,1.069941670E-1,5.316540599E-1,7.089366019E-2,5.469275109E-1
1.724520283E1,6.132648587E-1,2.176771760E-1,4.514834285E-1,7.920318340E-1
1.744561083E1,-2.277127206E-1,5.902001262E-2,2.785630524E-1,3.646009040E-1
1.764601883E1,1.250351548E0,-2.441572696E-1,-8.410590142E-2,1.276740212E0
1.784642683E1,-3.784468174E-1,-6.573448777E-1,-1.138792932E-1,7.670024611E-1
1.804683483E1,-1.230762526E-1,-2.640144527E-1,-2.426114082E-1,3.790932479E-1
1.824724296E1,-2.397958785E-1,-1.690609157E-1,6.380425096E-1,7.022691084E-1
1.844765096E1,4.462789893E-1,-3.042277396E-1,3.286412954E-1,6.322377361E-1
1.864805996E1,3.530256152E-1,-4.898416400E-1,-7.784461230E-2,6.087952866E-1
1.884846796E1,1.034307003E0,-7.689388394E-1,-1.188664556E0,1.753277314E0
1.904887596E1,-8.572050929E-2,2.141564488E-1,-2.760384381E-1,3.597335258E-1
1.924928412E1,9.027469903E-2,3.475335240E-1,4.666713998E-2,3.620868591E-1
1.944969212E1,3.683784008E-1,-7.953208685E-2,5.193158388E-1,6.416517275E-1
1.965010012E1,-1.173524708E-1,5.918502212E-1,-9.619668126E-2,6.109927071E-1
1.985050813E1,5.730716586E-1,-6.261315942E-1,-7.402923703E-1,1.126270257E0
2.005091613E1,2.565210164E-1,-8.336915374E-1,1.275380701E-1,8.815387516E-1
2.025132296E1,-6.408460736E-1,-8.009607792E-1,-6.339857578E-1,1.205885484E0
2.045173096E1,4.747201204E-1,-1.372274309E-1,-2.728250921E-1,5.644679720E-1
2.065213896E1,3.871999681E-1,8.638288826E-2,6.163090467E-1,7.329547461E-1
2.085254696E1,-6.529664248E-2,6.560847163E-2,-3.235629499E-1,3.365428734E-1
2.105295496E1,8.289027214E-1,2.518075407E-1,1.370042413E-1,8.770729281E-1
2.125336308E1,-5.980291963E-1,7.446790338E-1,-1.702074409E-1,9.701321332E-1
2.145377008E1,7.550430298E-2,-7.156959176E-1,5.793371797E-1,9.238793828E-1
2.165417808E1,4.341966659E-2,-7.120152712E-1,2.671634257E-1,7.617265322E-1
2.185458608E1,8.362594992E-2,-2.905244529E-1,2.132211775E-1,3.699473311E-1
2.205499308E1,1.079153195E-1,3.210258484E-1,-7.840866446E-1,8.541048986E-1
2.225540133E1,4.458764568E-3,2.971985042E-1,6.010970473E-2,3.032490859E-1
2.245580833E1,3.028008640E-1,2.747701108E-1,2.773438394E-2,4.098245638E-1
2.265621633E1,-5.663292110E-2,5.628722310E-1,5.815043449E-1,8.112827740E-1
2.285662333E1,2.306727022E-1,2.479906827E-1,6.411918998E-1,7.251457278E-1
2.305703133E1,-3.652633727E-1,4.017215371E-1,-6.991451383E-1,8.852126576E-1
2.325743783E1,-2.535260320E-1,-3.183944523E-1,-2.357218564E-1,4.703352737E-1
2.345784583E1,1.189225838E-1,-4.226013124E-1,3.331076205E-1,5.510854171E-1
2.365825283E1,2.430921793E-1,2.801239491E-1,-3.833635747E-1,5.334143464E-1
2.385865983E1,-3.254407048E-1,2.999895215E-1,1.302594692E-1,4.613815066E-1
2.405906783E1,5.117567778E-1,-1.202720255E-1,3.960537165E-2,5.271896672E-1
2.425947471E1,1.454249620E-1,5.173802376E-1,8.064416647E-1,9.691124230E-1
2.445988171E1,-2.076961845E-1,4.791827127E-2,-2.548460960E-1,3.322354563E-1
2.466028971E1,-3.152007982E-2,-3.469163775E-1,7.539811730E-1,8.305613149E-1
2.486069671E1,-2.428664118E-1,5.001537204E-1,4.254550040E-1,7.001069907E-1
2.506110371E1,-1.525042802E-1,-1.348437667E-1,6.752698123E-2,2.144767822E-1
2.526151125E1,1.094774246E0,4.900763631E-1,-1.563933492E-1,1.209613315E0
2.546191925E1,-1.836621463E-1,-4.698140919E-2,-2.738095224E-1,3.330325680E-1
2.566232625E1,-3.035917878E-1,3.207720220E-1,-2.201345414E-1,4.934793613E-1
2.586273325E1,1.209038645E-1,1.072778776E-1,3.800922930E-1,4.130332174E-1
2.606314025E1,7.417548895E-1,-2.596402764E-1,6.278706789E-1,1.005900084E0
2.626354796E1,-1.080248475E0,6.529724002E-1,-1.831813931E0,2.224601538E0
2.646395496E1,-2.475830913E-1,-4.156020284E-1,-2.539021671E-1,5.463412336E-1
2.666436196E1,3.525783718E-1,-1.186634541E0,-5.776503086E-1,1.366050116E0
2.686476996E1,2.417937219E-1,-2.734461427E-1,3.842528760E-1,5.299879901E-1
2.706517696E1,9.092075229E-1,2.167793512E-1,1.026612878E0,1.388375168E0
2.726558450E1,3.158697784E-1,-7.085106373E-1,-4.299939275E-1,8.869361971E-1
2.746599150E1,2.699833512E-1,9.867922068E-1,4.803689942E-2,1.024186220E0
2.766639850E1,1.327196062E-1,-1.109639928E-1,9.045150131E-3,1.732319725E-1
2.786680550E1,-9.671112299E-1,-3.598332405E-1,2.599365115E-1,1.064119863E0
2.806721250E1,-2.143386453E-1,5.833027959E-1,5.299389362E-1,8.167119950E-1
2.826761858E1,-1.144586444E0,-1.131217003E0,-6.199477315E-1,1.724547832E0
2.846802558E1,-4.184671864E-2,5.614380836E-1,-7.857617140E-1,9.666360953E-1
2.866843258E1,2.889413200E-2,9.133131802E-2,-6.439344883E-1,6.510206646E-1
2.886883958E1,3.523728848E-1,1.068527102E0,3.858435750E-1,1.189450328E0
2.906924638E1,3.645974994E-1,6.847381592E-2,5.412229896E-1,6.561572406E-1
2.926965338E1,-4.586048126E-1,1.520913690E-1,5.522048473E-2,4.863121021E-1
2.947005938E1,2.119779438E-1,7.176658511E-2,-6.730033159E-1,7.092380099E-1
2.967046638E1,-4.989305139E-1,-5.439476967E-1,6.719385087E-2,7.411651422E-1
2.987087238E1,-4.508590102E-1,5.432149172E-1,-3.790958971E-2,7.069606993E-1
3.007127896E1,2.661551535E-1,4.324032366E-1,-5.219675601E-2,5.104269058E-1
3.027168496E1,5.916472077E-1,-7.261718512E-1,8.475123048E-1,1.263190042E0
3.047209096E1,-9.862481803E-2,5.345661044E-1,-1.992186755E-1,5.789437411E-1
3.067249696E1,2.323665172E-1,1.421852559E-1,5.655183643E-2,2.782246493E-1
3.087290296E1,-3.676929772E-1,6.298948079E-2,-4.833111167E-1,6.105370060E-1
3.107330883E1,-6.302505732E-1,4.030178189E-1,-3.030858934E-1,8.071556269E-1
3.127371483E1,-4.812289178E-1,-4.028298259E-1,1.742444038E-1,6.513173207E-1
3.147412083E1,1.783089489E-1,-8.777800798E-1,-2.431064844E-1,9.281124461E-1
3.167452683E1,6.008179188E-1,1.614415348E-1,-3.495755494E-1,7.136165675E-1
3.187493183E1,5.318206549E-2,6.240198389E-2,-3.254687414E-2,8.821359702E-2
3.207533821E1,3.859369755E-1,-1.224471629E-2,5.078079924E-2,3.894559945E-1
3.227574321E1,1.630489379E-1,1.011558697E-1,5.397593379E-1,5.728504246E-1
3.247614921E1,-4.499536753E-1,4.801625386E-2,5.272890329E-1,6.948363799E-1
3.267655421E1,-1.048525333E0,2.213024534E-2,-1.508636117E0,1.837356268E0
3.287695921E1,-4.214660451E-2,-3.488686681E-1,1.769741774E-1,3.934533559E-1
3.307736437E1,-6.936039329E-1,3.533799648E-1,-1.385619760E0,1.589309892E0
3.327776938E1,4.691531062E-1,-2.360115498E-1,5.756923929E-2,5.283183756E-1
3.347817437E1,4.893082753E-2,6.571459770E-1,4.568358362E-1,8.018316795E-1
3.367857938E1,1.584848762E-1,-9.472095370E-1,-9.929009676E-1,1.381367328E0
3.387898437E1,8.750607371E-1,-1.073605046E-1,1.570432931E-1,8.954999540E-1
3.407938888E1,-1.482154727E-1,1.563360691E-1,-1.440684646E-1,2.591611764E-1
3.427979388E1,7.212932408E-2,1.184270158E-1,6.228170991E-1,6.380664044E-1
3.448019788E1,3.554518819E-1,1.210085034E0,5.947304368E-1,1.394401708E0
3.468060288E1,-6.323598623E-1,-1.280846149E-1,7.880993932E-2,6.499966697E-1
3.488100688E1,-2.964466214E-1,-1.483712316E0,-5.453140736E-1,1.608306648E0
3.508141221E1,-1.818866730E-1,1.859262958E-2,-4.254027903E-1,4.630291370E-1
3.528181621E1,-5.840161815E-2,-4.932593107E-1,-4.249206781E-1,6.536612879E-1
3.548222021E1,5.998147130E-1,2.324771434E-1,7.596552372E-1,9.954392958E-1
3.568262421E1,3.920853734E-1,4.668639600E-1,6.460883021E-1,8.883259488E-1
3.588302821E1,-6.923891306E-1,8.256969452E-1,-7.759383321E-1,1.327877422E0
3.608343233E1,-4.061719030E-2,-6.332452297E-1,-5.306904316E-1,8.272131595E-1
3.628383633E1,-3.267474473E-1,-5.722578764E-1,-4.644101560E-1,8.061760133E-1
3.648424033E1,3.268646300E-1,-1.297279354E-2,4.133474827E-1,5.271289417E-1
3.668464333E1,-2.295622602E-2,7.435551286E-1,6.946305633E-1,1.017798033E0
3.688504733E1,3.096635044E-1,3.174443245E-1,-2.798580565E-2,4.443485011E-1
3.708545150E1,8.259216696E-2,6.733012199E-1,1.451046318E-1,6.936939909E-1
3.728585450E1,2.441318929E-1,-3.342560530E-1,-1.952775568E-2,4.143776337E-1
3.748625750E1,-3.945132196E-1,5.311014056E-1,2.089164555E-1,6.937978588E-1
3.768666150E1,9.304707497E-2,-1.012549028E-1,3.096172214E-1,3.387818432E-1
3.788706450E1,2.915057838E-1,-7.630386353E-1,2.156087756E-1,8.448021810E-1
3.808746708E1,-1.277804136E0,-7.267617583E-1,-1.181757212E0,1.886137898E0
3.828787008E1,5.929703265E-2,-3.604784608E-2,-3.649023175E-1,3.714421713E-1
3.848827308E1,4.867888391E-1,5.697079897E-1,5.474694371E-1,9.280373656E-1
3.868867608E1,6.504592299E-2,-6.137813330E-1,-2.135998011E-1,6.531335023E-1
3.888907808E1,7.389934361E-2,7.008202076E-1,9.835700393E-1,1.209966982E0
3.908948113E1,-6.368727088E-1,7.952136546E-2,-3.399618268E-1,7.262950767E-1
3.928988412E1,5.664504766E-1,-5.510795861E-2,-3.790797666E-2,5.703858732E-1
3.949028612E1,-1.534382343E0,3.989489377E-1,-6.836485863E-1,1.726518120E0
3.969068913E1,4.924070537E-1,-7.084597349E-1,3.626025915E-1,9.358742127E-1
3.989109113E1,6.638777256E-1,3.631027043E-1,5.902096033E-1,9.596481565E-1
4.009149308E1,-1.048504829E0,-2.162858099E-1,-4.994854033E-1,1.181366834E0
4.029189508E1,6.636777520E-1,-4.699390531E-1,-6.242933869E-1,1.025208810E0
4.049229808E1,1.428582966E-1,-1.918366253E-1,2.023111843E-2,2.400397506E-1
4.069270008E1,2.322916128E-2,7.886595130E-1,3.757570684E-1,8.739089173E-1
4.089310108E1,2.495190650E-1,-1.090414170E-2,2.643895745E-1,3.637038785E-1
4.109350333E1,-3.396506906E-1,-3.314960003E-2,5.425198376E-2,3.455499462E-1
4.129390533E1,5.757859945E-1,3.496578038E-1,-4.288961291E-1,7.985874910E-1
4.149430733E1,-5.702978000E-3,-6.935608387E-2,-4.846358299E-2,8.480276649E-2
4.169470833E1,2.266192287E-1,-1.437904537E-1,5.013984442E-1,5.687111474E-1
4.189511033E1,-3.181367218E-1,8.557453007E-2,3.553832769E-1,4.845938996E-1
4.209551121E1,1.086886856E-3,9.411316365E-2,3.802021146E-1,3.916785887E-1
4.229591321E1,-8.104459643E-1,4.795762300E-1,-2.410133183E-1,9.720614390E-1
4.249631421E1,-5.738726854E-1,-9.049442410E-1,-2.361347675E-1,1.097275520E0
4.269671521E1,4.347282648E-1,-1.941073537E-1,1.994563490E-1,5.161871406E-1
4.289711621E1,2.502830625E-1,-8.121223003E-2,5.157115459E-1,5.789606518E-1
4.309751696E1,-2.707664669E-1,8.355618119E-1,2.134611011E-1,9.039046757E-1
4.329791796E1,3.851782680E-1,2.317258529E-2,-3.446736634E-1,5.173965607E-1
4.349831896E1,-2.051684558E-1,-1.251252443E-1,-1.645314842E-1,2.912405043E-1
4.369871996E1,2.293531895E-1,-6.614943743E-1,-1.721752435E-1,7.209868287E-1
4.389911996E1,-1.486256719E-1,-5.636777878E-1,-2.468454987E-1,6.330520824E-1
4.409952133E1,-7.339214683E-1,1.368267834E-1,-2.513549291E-3,7.465712345E-1
4.429992133E1,1.872013211E-1,-2.561013401E-1,-2.752692699E-1,4.200064309E-1
4.450032233E1,-1.768973917E-1,1.367572427E0,-1.218893826E-1,1.384342462E0
4.470072233E1,1.382898390E-1,-1.006875467E-2,6.136709079E-2,1.516290844E-1
4.490112233E1,4.981087446E-1,8.489586711E-1,6.034899354E-1,1.154574921E0
4.510152313E1,-9.600844234E-2,-1.570034027E-1,3.643697202E-1,4.082070338E-1
4.530192313E1,5.898253322E-1,-3.481610119E-1,6.238560081E-1,9.264482346E-1
4.550232313E1,8.449611068E-1,4.887082875E-1,-7.914559543E-2,9.793156220E-1
4.570272312E1,-7.561699301E-2,1.349351257E-1,5.296141282E-2,1.634941254E-1
4.590312213E1,2.481415719E-1,2.555006742E-2,5.338638276E-2,2.551022374E-1
4.610352271E1,-2.217307240E-1,6.388080716E-1,4.006266892E-1,7.859656547E-1
4.630392271E1,7.940619439E-2,1.072808504E-1,3.802509606E-1,4.029954312E-1
4.650432271E1,-1.199273229E0,-6.382480264E-1,-1.096267581E0,1.745685948E0
4.670472171E1,-1.440798938E-1,3.475873172E-1,-3.408533335E-1,5.076976993E-1
4.690512171E1,1.343996357E-2,-2.281205356E-2,-6.040676311E-2,6.595452553E-2
4.710551958E1,7.533686757E-1,8.355166018E-2,5.432715416E-1,9.325712892E-1
4.730591858E1,-1.167003810E-1,5.348050594E-1,4.302481711E-1,6.962391251E-1
4.750631758E1,1.468014270E-1,2.682234645E-1,-4.595579803E-1,5.519855280E-1
4.770671758E1,-3.329989910E-1,2.958692014E-1,-2.167109847E-1,4.953691182E-1
4.790711658E1,-2.004603297E-1,-5.624680519E-1,-2.014847249E-1,6.301989746E-1
4.810751671E1,-1.056973219E0,7.691020966E-1,1.750097722E-1,1.318839960E0
4.830791471E1,-1.564784907E-2,5.049533769E-2,4.577375054E-1,4.607800540E-1
4.850831371E1,-4.769138098E-1,-7.929555178E-1,-1.763393432E-1,9.419770693E-1
4.870871271E1,-5.021027327E-1,3.322384953E-1,-6.766085625E-1,9.056979180E-1
4.890911171E1,1.802159697E-1,1.159389317E-1,2.176727355E-1,3.054522080E-1
4.910950883E1,9.391663074E-1,-9.882987477E-3,5.795217156E-1,1.103619701E0
4.930990783E1,5.125883222E-2,-2.266457081E-1,4.808994532E-1,5.340973965E-1
4.951030583E1,-8.848837763E-2,-3.811872564E-3,1.932987124E-1,2.126243532E-1
4.971070383E1,-4.350701571E-1,-7.499694824E-1,-1.212020874E0,1.490213027E0
4.991110183E1,-5.264680460E-2,3.133476377E-1,-2.190003395E-1,3.859009935E-1
5.011150096E1,-1.993363500E-1,3.196197450E-1,1.913109273E-1,4.224827011E-1
5.031189896E1,7.690122128E-1,4.904700071E-2,3.078058362E-1,8.297769727E-1
5.051229696E1,-1.093156356E-2,-1.723799482E-2,7.867513895E-1,7.870161348E-1
5.071269496E1,-1.400305480E-1,5.006223917E-1,-9.019163251E-1,1.041001629E0
5.091309296E1,3.649434447E-2,-4.182755351E-1,-2.237677276E-1,4.757712227E-1
5.111349021E1,-1.227790117E-1,-9.907231927E-1,-6.092004180E-1,1.169500868E0
5.131388821E1,5.638172105E-2,1.891191006E-1,-2.511700690E-1,3.194234434E-1
5.151428621E1,-3.547374606E-1,2.306844443E-1,4.485785365E-1,6.166657784E-1
5.171468321E1,5.589967966E-1,-1.096554279E0,-2.018491775E-1,1.247257711E0
5.191508021E1,-1.927576214E-1,8.940175772E-1,8.157950640E-2,9.181928690E-1
5.211547871E1,-2.986916900E-2,-3.096517026E-1,-9.370540828E-2,3.248954413E-1
5.231587571E1,4.111898243E-1,4.557757676E-1,4.440327883E-1,7.576105457E-1
5.251627271E1,2.233332545E-1,-1.467734128E-1,8.744612336E-1,9.143864754E-1
5.271667071E1,3.049434163E-3,-4.335908890E-1,-1.311254054E-1,4.529947351E-1
5.291706771E1,1.874458417E-2,-3.511961401E-1,-7.282322049E-1,8.087102278E-1
5.311746383E1,-3.089696169E-1,3.455778956E-1,-6.258658171E-1,7.788416573E-1
5.331786083E1,-9.614311904E-2,1.356105059E-1,-5.238086730E-2,1.742913191E-1
5.351825783E1,4.462841451E-1,4.525399208E-1,8.957719803E-1,1.098348469E0
5.371865483E1,1.626910120E-1,4.660681188E-1,2.659245133E-1,5.607171333E-1
5.391905083E1,-4.949982464E-1,5.701071620E-1,-8.656926155E-1,1.148681481E0
5.411944846E1,1.817631721E-1,-5.843261480E-1,-2.491710633E-1,6.607277176E-1
5.431984546E1,-2.295146883E-1,-6.563697457E-1,-1.840012521E-1,7.192737281E-1
5.452024146E1,1.294325829E0,-2.070046365E-1,-1.526886225E-1,1.319637861E0
5.472063846E1,-9.722597152E-2,8.596925735E-1,8.389961123E-1,1.205171642E0
5.492103446E1,1.603311151E-1,-7.035663128E-1,-7.496627569E-1,1.040531533E0
5.512143133E1,-5.597790703E-2,9.868345261E-1,2.034135908E-1,1.009134776E0
5.532182733E1,1.756277680E-2,-1.147283241E-1,-2.041245848E-1,2.348145771E-1
5.552222333E1,5.721060038E-1,5.158783197E-1,4.215863049E-1,8.781632723E-1
5.572261933E1,-4.472717941E-1,-6.393350363E-1,3.442649245E-1,8.528303962E-1
5.592301533E1,-3.325838447E-1,-2.146843672E-1,6.660242379E-2,4.014190754E-1
5.612341083E1,-6.347842216E-1,-1.018097878E0,-1.317950487E0,1.782264790E0
5.632380683E1,-2.986212373E-1,-1.166788414E-1,-4.566248655E-1,5.579380460E-1
5.652420283E1,-8.398728073E-2,3.227552772E-2,-2.710674107E-1,2.856100736E-1
5.672459883E1,1.065357924E0,6.847989559E-1,9.048744440E-1,1.556513692E0
5.692499483E1,1.725370586E-1,6.778518558E-1,7.715926170E-1,1.041444834E0
5.712538987E1,1.448915601E-1,9.540053606E-1,-9.642464668E-2,9.697512592E-1
5.732578588E1,-2.886735797E-1,4.400307685E-2,-4.051894546E-1,4.994468945E-1
5.752618188E1,-3.169607520E-1,-4.649197757E-1,-3.357607722E-1,6.552479014E-1
5.772657687E1,-7.948351502E-1,-6.303156912E-2,-1.135247499E-1,8.053718170E-1
5.792697188E1,-1.189021617E-1,1.374000609E-1,4.594745636E-1,4.940985483E-1
5.812736808E1,2.230869830E-1,-1.386550426E0,-2.961074412E-1,1.435259386E0
5.832776308E1,1.635115221E-2,1.055852056E0,-5.495218560E-2,1.057407521E0
5.852815808E1,3.276303411E-2,-4.687131941E-1,-2.180605680E-1,5.179921680E-1
5.872855308E1,1.523829550E-1,8.792496920E-1,3.329373002E-1,9.524430858E-1
5.892894808E1,1.275583655E-1,-1.085314304E-1,7.126010060E-1,7.320180338E-1
5.912934333E1,2.414935380E-1,4.659210443E-1,7.371097803E-1,9.048383152E-1
5.932973833E1,-5.844886899E-1,-8.637985587E-2,-1.164696574E0,1.305988751E0
5.953013333E1,4.157314822E-2,-3.505638540E-1,-5.059328079E-1,6.169208608E-1
5.973052833E1,-2.975008190E-1,-3.275770247E-1,-5.402079225E-1,6.983108505E-1
5.993092233E1,7.174346447E-1,-3.888720870E-1,3.652359247E-1,8.940532703E-1
6.013131696E1,-1.349737644E-1,6.307816505E-1,4.965471625E-1,8.140408420E-1
6.033171096E1,5.021838099E-2,1.409780793E-2,1.266751140E-1,1.369934980E-1
6.053210596E1,1.757830381E-1,-3.705733418E-1,1.699807495E-2,4.105036087E-1
6.073249996E1,-5.213877559E-1,-7.068020105E-1,-5.671850443E-1,1.045520516E0
6.093289496E1,-1.725412458E-1,-3.879710436E-1,-1.637442037E-2,4.249236800E-1
6.113328946E1,-2.829747796E-1,5.219394565E-1,6.601898670E-1,8.878886094E-1
6.133368346E1,6.402779222E-1,-1.088257194E0,-1.562976390E-1,1.272276892E0
6.153407746E1,-2.060835622E-2,4.126724899E-1,-2.440498024E-1,4.798787288E-1
6.173447146E1,-2.614647448E-1,-3.177025318E-1,-5.199850202E-1,6.630860673E-1
6.193486546E1,2.710480392E-1,5.418066978E-1,2.812264264E-1,6.679145456E-1
6.213525896E1,3.714999259E-1,7.523786426E-1,7.722185850E-1,1.140354050E0
6.233565296E1,-2.953088880E-1,-2.252445221E-1,4.061661363E-1,5.503756574E-1
6.253604596E1,-8.059781194E-1,-1.743120849E-1,-1.104196548E0,1.378127516E0
6.273643996E1,4.263201356E-2,-2.062358409E-1,-5.062254667E-1,5.482836253E-1
6.293683396E1,4.778632894E-2,-1.128596306E0,-3.999196887E-1,1.198310858E0
6.313722708E1,4.002993703E-1,7.687166929E-1,8.486270905E-1,1.212985111E0
6.333762108E1,1.764546633E-1,6.369205117E-1,5.776735544E-1,8.777874013E-1
6.353801408E1,-3.914933205E-1,4.507994354E-1,-6.954487562E-1,9.165893974E-1
6.373840708E1,2.846530080E-1,1.579151154E-1,7.876576483E-2,3.349157571E-1
6.393880108E1,-1.167263910E-1,-5.814331174E-1,-3.103481233E-1,6.693321134E-1
6.413919400E1,-3.514963686E-1,3.965276778E-1,2.946873307E-1,6.063204757E-1
6.433958700E1,-3.355477005E-2,5.188658237E-1,8.298052549E-1,9.792468671E-1
6.453998000E1,7.934830785E-1,-9.848081470E-1,1.202271879E-1,1.270400354E0
6.474037300E1,-6.513962746E-1,6.473181248E-1,-2.378540337E-1,9.486371290E-1
6.494076600E1,2.848207057E-1,1.137303188E-2,-1.131015942E-1,3.066661879E-1
6.514115946E1,2.229091823E-1,1.062911153E0,2.931133807E-1,1.124892918E0
6.534155146E1,1.080240756E-1,-3.236467242E-1,4.987479448E-1,6.042895957E-1
6.554194446E1,2.414598465E-1,-4.292218387E-1,1.835562289E-1,5.255731476E-1
6.574233746E1,-2.427558750E-1,-4.950359762E-1,-6.088860035E-1,8.214214496E-1
6.594272946E1,-4.620416462E-2,-7.350961864E-2,-5.924667716E-1,5.987949268E-1
6.614312171E1,-2.023577839E-1,5.715924129E-2,-2.769982219E-1,3.477698470E-1
6.634351371E1,3.536310792E-1,2.905854881E-1,8.189410567E-1,9.381680662E-1
6.654390571E1,2.828701586E-2,-1.310606897E-1,7.758966088E-1,7.873960930E-1
6.674429871E1,-7.223349810E-2,7.590860128E-2,-4.723001122E-1,4.837842391E-1
6.694469071E1,1.452326179E-1,2.462820858E-1,-2.516113520E-1,3.808617223E-1
6.714508296E1,-2.145388126E-1,-4.448465109E-1,-4.887246192E-1,6.948144168E-1
6.734547496E1,-4.424031377E-1,-3.950583637E-1,4.754730165E-1,7.601751353E-1
6.754586696E1,-2.689161897E-1,5.544093251E-1,4.404050708E-1,7.573917370E-1
6.774625896E1,2.859782577E-1,-9.438658357E-1,4.345684126E-2,9.871954096E-1
6.794664996E1,3.670645952E-1,-4.399189353E-2,-3.380784988E-1,5.009678384E-1
6.814704183E1,-2.110861689E-1,-1.459297836E-1,-2.539324462E-1,3.610187802E-1
6.834743383E1,1.741323024E-1,6.634601951E-1,6.728779525E-2,6.892235752E-1
6.854782483E1,5.464874506E-1,1.647122763E-2,9.320191741E-1,1.080545962E0
6.874821683E1,-2.983970195E-2,1.158654131E-2,3.914063871E-1,3.927131467E-1
6.894860883E1,-4.829489887E-1,1.262229532E-1,-4.939604998E-1,7.022598770E-1
6.914900025E1,-4.610030651E-1,-3.967803717E-1,-5.706658363E-1,8.340371611E-1
6.934939125E1,-8.127538115E-2,-2.464590967E-1,-2.501910627E-1,3.604765481E-1
6.954978325E1,1.013045430E0,-1.095102191E0,1.755536348E-1,1.502108162E0
6.975017425E1,-1.393485218E-1,7.095637321E-1,4.716983140E-1,8.633643494E-1
6.995056525E1,5.465591550E-1,-1.077669024E0,-5.492849946E-1,1.327332453E0
7.015095625E1,-3.015868068E-1,4.092069864E-1,-4.316691756E-1,6.668907234E-1
7.035134725E1,-2.972204387E-1,-1.407933831E-1,-4.106854498E-1,5.261419054E-1
7.055173825E1,-2.551663518E-1,7.480624318E-1,4.084756374E-1,8.896963613E-1
7.075212925E1,6.889392734E-1,-1.955284029E-1,1.127573729E0,1.335773631E0
7.095251925E1,2.525008321E-1,-2.496660650E-1,1.716464460E-1,3.944012128E-1
7.115291046E1,-2.611038983E-1,-6.311106682E-1,-7.489162683E-1,1.013583493E0
7.135330146E1,-1.472033858E-1,3.370749950E-1,-6.828253865E-1,7.755893872E-1
7.155369146E1,5.902992189E-2,-2.751687355E-2,-3.210991323E-1,3.276375479E-1
7.175408246E1,9.941504151E-2,1.057830572E0,7.831661701E-1,1.319938680E0
7.195447246E1,1.080801040E-1,4.491974115E-1,7.380657792E-1,8.707472181E-1
7.215486346E1,2.671504617E-1,2.680388093E-1,-6.196590066E-1,7.260795114E-1
7.235525346E1,-4.754924774E-1,-8.519054055E-1,-2.521545589E-1,1.007679432E0
7.255564346E1,-5.507901907E-1,-6.910064816E-1,-5.344280601E-1,1.032701866E0
7.275603446E1,6.388983130E-1,8.217236400E-2,4.701307416E-1,7.974749313E-1
7.295642446E1,-1.090021804E-1,9.702336192E-1,6.489973664E-1,1.172361861E0
7.315681371E1,4.756277800E-1,-9.309353232E-1,-4.570187926E-1,1.140933187E0
7.335720371E1,-1.586892754E-1,5.723646283E-1,1.962467134E-1,6.255368306E-1
7.355759271E1,6.170799211E-2,-4.568667412E-1,-3.818466067E-1,5.986166775E-1
7.375798271E1,-1.384327412E-1,7.730740309E-1,4.842317998E-1,9.226524357E-1
7.395837271E1,2.000571787E-1,1.290446818E-1,8.296228647E-1,8.631045721E-1
7.415876358E1,3.969397023E-2,-5.015054345E-1,1.273882389E-1,5.189519010E-1
7.435915258E1,-4.621678963E-2,-4.695661664E-1,-6.671848297E-1,8.171682650E-1
7.455954258E1,4.805075750E-2,3.393977284E-1,-1.433912516E-1,3.715652626E-1
7.475993158E1,-1.924301833E-1,-1.620526165E-1,-3.305897117E-1,4.154274707E-1
7.496032158E1,-4.674275697E-4,7.829634547E-1,5.685396791E-1,9.676101263E-1
7.516071013E1,-1.940000355E-1,2.405054867E-1,8.673071265E-1,9.207065519E-1
7.536109912E1,-3.360978067E-1,1.912136823E-1,-1.442068577E0,1.493012454E0
7.556148813E1,-1.308328658E-1,-4.546737075E-1,1.301696599E-1,4.907031276E-1
7.576187713E1,-3.161932528E-1,-6.024701595E-1,-6.001895070E-1,9.072904224E-1
7.596226613E1,1.296828032E0,-1.180414036E-1,4.528664351E-1,1.378689495E0
7.616265508E1,-2.168642879E-1,6.872067451E-1,7.744278312E-1,1.057838218E0
7.636304408E1,3.963185549E-1,-1.199538410E-1,-5.345766544E-1,6.761874891E-1
7.656343308E1,-2.164256424E-1,8.897233754E-2,-2.387909591E-1,3.343310600E-1
7.676382208E1,-1.319200248E-1,-4.260287434E-2,-3.163169920E-1,3.453611693E-1
7.696421008E1,-3.575775921E-1,-2.432653867E-2,6.924952269E-1,7.797455701E-1
7.716459971E1,1.448975950E-1,1.672185212E-1,6.010988951E-1,6.405288663E-1
7.736498871E1,1.854594797E-1,-8.062799573E-1,8.748798072E-2,8.319475554E-1
7.756537671E1,6.020512581E-1,3.491193056E-1,-8.229830116E-2,7.008016961E-1
7.776576471E1,-1.750276685E-1,3.637061119E-1,-2.418085784E-1,4.705190848E-1
7.796615371E1,2.792767584E-1,-1.953421533E-2,-1.299330294E-1,3.086416782E-1
7.816654088E1,-5.499774590E-2,7.528003454E-1,5.717873573E-1,9.469286637E-1
7.836692887E1,-2.502237819E-2,1.396405101E-1,4.329298139E-1,4.555807450E-1
7.856731688E1,-7.690266967E-1,2.818899453E-1,-1.067551613E0,1.345559530E0
7.876770488E1,-3.179134727E-1,9.357728064E-2,-2.760995924E-1,4.313428665E-1
7.896809288E1,-2.027837634E-1,-3.500176072E-1,-2.845937610E-1,4.945980073E-1
7.916848171E1,1.286780000E0,-7.902600765E-1,4.806682169E-1,1.584725746E0
7.936886971E1,3.683914542E-1,7.543622255E-1,6.821330786E-1,1.081702440E0
7.956925771E1,3.555068374E-2,-3.554116562E-2,-3.023239672E-1,3.064748060E-1
7.976964571E1,1.172037795E-1,-6.196321845E-1,-2.242379338E-1,6.693006955E-1
7.997003371E1,-7.657334954E-2,-3.106875122E-1,-3.233394623E-1,4.549050626E-1
8.017041983E1,-1.452808857E0,1.028739333E0,4.968357980E-1,1.848189384E0
8.037080783E1,1.317776889E-1,1.223721802E-1,6.734253764E-1,6.970237065E-1
8.057119483E1,2.828894258E-1,-8.024250269E-1,1.726517379E-1,8.681710509E-1
8.077158283E1,2.345037311E-1,4.288599491E-1,-6.927198172E-1,8.478051669E-1
8.097196983E1,-3.868176937E-1,4.815420806E-1,-2.147574276E-1,6.539353609E-1
8.117235663E1,4.474073648E-1,6.877129781E-4,-4.936322570E-1,6.662181536E-1
8.137274363E1,-7.728670537E-2,-1.588820107E-2,1.216690540E-1,1.450138906E-1
8.157313163E1,9.166447073E-2,-1.662921347E-2,7.049692273E-1,7.110981067E-1
8.177351863E1,-4.383408427E-1,-4.686807096E-1,-8.717292547E-1,1.082458404E0
8.197390563E1,-6.325977296E-2,-4.852768481E-1,-2.656461112E-2,4.901031491E-1
8.217429258E1,-2.456581593E-1,7.832925767E-2,-4.219426215E-1,4.944886041E-1
8.237467858E1,1.044347763E0,-8.572654128E-1,1.240616739E-1,1.356818904E0
8.257506558E1,-5.779338479E-1,1.104373813E0,6.809912920E-1,1.420351432E0
8.277545258E1,2.513681352E-1,1.189054698E-1,-4.210330248E-1,5.045723517E-1
8.297583958E1,-2.249968797E-1,-1.462460011E-1,-1.326475143E-1,2.993440358E-1
8.317622621E1,-2.175759822E-1,-3.922035694E-1,-4.279532135E-1,6.199249155E-1
8.337661321E1,4.620970190E-1,-9.628730416E-1,4.104638100E-1,1.144175987E0
8.357699921E1,-2.315018177E-1,6.877817512E-1,2.129671723E-1,7.563014249E-1
8.377738621E1,2.200136185E-1,-8.116316795E-1,-1.140675768E-1,8.486244090E-1
8.397777221E1,7.727015764E-3,5.404999256E-1,1.199113578E-1,5.536954127E-1
8.417815800E1,-2.428639680E-1,-2.319050580E-1,-9.044244140E-2,3.477681672E-1
8.437854500E1,9.189471602E-2,3.338288069E-1,3.302151859E-1,4.784646070E-1
8.457893100E1,-5.445982814E-1,-3.086760640E-1,3.908885717E-1,7.380122466E-1
8.477931700E1,-1.643375307E-2,-4.444010258E-1,2.940912247E-1,5.331528752E-1
8.497970300E1,8.074770123E-2,-2.592695951E-1,-6.115120649E-1,6.690948511E-1
8.518008908E1,-2.277500331E-1,-8.148925751E-2,-1.792736053E-1,3.010807238E-1
8.538047508E1,-2.574565709E-1,-3.623082340E-1,-5.504247546E-1,7.074733584E-1
8.558086008E1,1.015946269E-2,5.251467228E-1,7.244386077E-1,8.948148364E-1
8.578124608E1,-1.597053856E-1,1.033608317E-1,6.707512736E-1,6.972062412E-1
8.598163208E1,-7.195014507E-2,5.510835052E-1,-2.248195261E-1,5.995111945E-1
8.618201821E1,-1.440960169E-1,-4.528514147E-1,-3.929824233E-1,6.166629962E-1
8.638240321E1,-3.783937395E-1,-4.288855493E-1,1.300413907E-1,5.865453092E-1
8.658278921E1,1.026608706E0,-6.585618109E-2,-8.363991976E-1,1.325830339E0
8.678317421E1,-6.837230921E-1,2.691218257E-1,4.876172543E-1,8.818584979E-1
8.698355921E1,1.742839813E-1,-7.266955972E-1,-2.406258285E-1,7.850873750E-1
8.718394550E1,7.227225304E-1,6.075947881E-1,7.804544568E-1,1.224993241E0
8.738433050E1,5.944053531E-1,-4.254009426E-1,-1.122391503E-2,7.310332838E-1
8.758471550E1,5.918360874E-2,1.896229386E-1,4.213110805E-1,4.657924269E-1
8.778510050E1,-2.847366929E-1,-2.257377356E-1,7.008694112E-3,3.634303666E-1
8.798548550E1,-8.517261595E-2,-3.202338517E-1,-2.257129848E-1,4.009369598E-1
8.818587025E1,3.939695656E-2,-3.937752843E-1,-4.250172079E-1,5.807329177E-1
8.838625525E1,5.763494223E-2,2.724124789E-1,-2.124302089E-1,3.502241267E-1
8.858664025E1,2.075318396E-1,3.469751477E-1,-3.799939156E-2,4.060851775E-1
8.878702425E1,6.970135123E-2,4.384201765E-1,6.678906083E-1,8.019653323E-1
8.898740925E1,-2.268218696E-1,2.467683889E-2,5.273545384E-1,5.745954369E-1
8.918779425E1,-1.110486507E0,6.360808611E-1,-1.065510035E0,1.665259973E0
8.938817825E1,-2.661158442E-1,-3.314566910E-1,-5.562288761E-1,7.000512433E-1
8.958856325E1,-1.091462970E-1,-3.165395260E-1,-2.542954385E-1,4.204478038E-1
8.978894725E1,1.118650198E0,-1.653341502E-1,2.177852690E-1,1.151583288E0
8.998933125E1,-2.281861007E-1,5.327384472E-1,3.518326879E-1,6.779862756E-1
9.018971608E1,2.712936997E-1,2.899067402E-1,-6.134657264E-1,7.307437218E-1
9.039010008E1,-6.821833551E-2,9.285657108E-2,-4.076383710E-1,4.236096382E-1
9.059048408E1,2.443525940E-2,-7.408090234E-1,-7.204095125E-1,1.033627088E0
9.079086808E1,1.862231046E-1,2.983689308E-1,-1.085819006E-1,3.680938640E-1
9.099125208E1,2.064855248E-1,-7.224263549E-1,4.445728362E-1,8.730298488E-1
9.119163658E1,-6.293614209E-2,-6.858713627E-1,-3.912552297E-1,7.921244466E-1
9.139202058E1,-3.056093454E-1,-5.084487200E-1,-6.671289802E-1,8.927363827E-1
9.159240458E1,1.468076557E-1,-7.562720031E-2,-1.133298755E0,1.145267667E0
9.179278858E1,-1.067288034E-2,-1.970793307E-1,-7.540736794E-1,7.794750073E-1
9.199317158E1,8.364046216E-1,-1.189911604E0,2.975067198E-1,1.484578245E0
9.219355571E1,-1.916871816E-1,6.034089327E-1,4.720370471E-1,7.897248189E-1
9.239393871E1,4.776002467E-1,4.658827931E-2,-5.179198980E-1,7.060548733E-1
9.259432271E1,-9.079933167E-1,-5.092068911E-1,-1.229594469E0,1.611100890E0
9.279470571E1,1.245054975E-2,-4.315225482E-1,-2.748451233E-1,5.117680799E-1
9.299508971E1,-1.462818086E-1,-1.558471620E-1,8.797468543E-1,9.053403963E-1
9.319547258E1,3.079475760E-1,-1.269255131E-1,1.625505567E0,1.659280007E0
9.339585558E1,-1.278587431E-1,-9.064776450E-2,2.443218380E-1,2.902723478E-1
9.359623958E1,7.606825829E-1,4.187562168E-1,6.497948170E-1,1.084540486E0
9.379662258E1,-4.311636686E-1,-5.376103520E-1,-8.423365653E-4,6.891499904E-1
9.399700558E1,4.255130887E-1,1.062064052E0,1.435839087E-1,1.153107878E0
9.419738796E1,6.630863994E-2,-2.559549920E-2,1.254496694E0,1.256508623E0
9.439777096E1,4.348240793E-1,5.510285497E-2,3.295934796E-1,5.483978176E-1
9.459815296E1,-1.622046679E-1,6.855877638E-1,-5.633442998E-1,9.020519587E-1
9.479853596E1,1.842146739E-2,3.293513358E-1,-2.762586474E-1,4.302679318E-1
9.499891896E1,-1.502829022E-3,3.994045258E-1,-4.892696813E-2,4.023929446E-1
9.519930058E1,-6.760522723E-2,1.506675929E-1,5.665359497E-1,5.901136946E-1
9.539968358E1,3.204921260E-2,7.466973066E-1,8.542414904E-1,1.135038565E0
9.560006558E1,-6.311488748E-1,3.878871799E-1,-1.540356636E0,1.709240747E0
9.580044858E1,-3.243581951E-1,-7.157495022E-1,-2.576205432E-1,8.269667060E-1
9.600083058E1,-6.725748777E-1,1.304755956E-1,-1.428010166E-1,6.998378223E-1
9.620121313E1,1.394584537E0,-3.995208442E-1,3.167469427E-2,1.451029366E0
9.640159512E1,-1.386395991E-1,1.930454373E-1,2.819302380E-1,3.687440012E-1
9.660197713E1,1.419309676E-1,-7.287947536E-1,-2.133040577E-1,7.725184874E-1
9.680235913E1,-2.174304426E-1,2.121097744E-1,-1.507275738E-2,3.041278378E-1
9.700274112E1,1.954807639E-1,-3.090761304E-1,-5.674953461E-1,6.751235081E-1
9.720312296E1,2.528069317E-1,8.350834250E-2,-7.432229072E-2,2.764214009E-1
9.740350496E1,4.173743427E-1,-2.574124634E-1,6.319267154E-1,7.998711720E-1
9.760388696E1,2.662448585E-1,-5.307412744E-1,-1.274690628E-1,6.073063370E-1
9.780426896E1,-5.962592363E-1,-7.543880939E-1,-1.285088539E0,1.605016831E0
9.800465096E1,1.002278998E-1,2.979261242E-2,-6.550824046E-1,6.633748477E-1
9.820503275E1,-4.938984215E-1,-3.185110390E-1,-2.027997971E0,2.111435697E0
9.840541475E1,5.559049249E-1,7.465667725E-1,3.614475429E-1,9.985171794E-1
9.860579575E1,2.606070340E-1,2.265045941E-1,4.009665847E-1,5.291451212E-1
9.880617775E1,-7.016119957E-1,-1.189957410E-1,-1.010928035E0,1.236282682E0
9.900655875E1,-1.229271144E-1,1.798444428E-3,-8.362810016E-1,8.452693201E-1
9.920693988E1,-9.598314762E-3,-2.770359516E-1,-3.865344822E-1,4.756573894E-1
9.940732088E1,-1.679906994E-2,2.963372320E-2,-1.451134235E-1,1.490579484E-1
9.960770188E1,3.312543929E-1,-6.230178475E-2,3.949599564E-1,5.192343906E-1
9.980808388E1,4.328621626E-1,-8.217968345E-1,-1.210561693E-1,9.366825957E-1
1.000084649E2,-1.544999331E-1,1.465968341E-1,-4.694445990E-3,2.130326241E-1
1.002088457E2,1.688209772E-1,-2.230337709E-1,-2.120818347E-1,3.510317506E-1
1.004092268E2,-4.236138463E-1,9.539615512E-1,3.112441599E-1,1.089203498E0
1.006096078E2,-3.563176095E-1,-3.143180311E-1,4.813556671E-1,6.763588854E-1
1.008099888E2,3.117989898E-1,-2.657487690E-1,6.324952096E-2,4.145377186E-1
1.010103698E2,1.199925989E-1,-9.956710972E-3,-5.271493793E-1,5.407252795E-1
1.012107506E2,-2.612111866E-1,-1.305590663E-2,-5.190626383E-1,5.812295271E-1
1.014111316E2,-3.688979745E-1,2.990432382E-1,-2.166776061E-1,5.219786958E-1
1.016115126E2,4.184487164E-1,9.305009246E-2,9.111694694E-1,1.006969438E0
1.018118936E2,4.253947437E-1,3.367727101E-1,7.657939792E-1,9.385184946E-1
1.020122736E2,1.816592067E-1,8.390309811E-1,-2.121255845E-1,8.842908561E-1
1.022126541E2,4.623445868E-1,-4.807410538E-1,5.344860554E-1,8.547220725E-1
1.024130341E2,-4.883972108E-1,-6.412683055E-3,-4.761675298E-1,6.821352318E-1
1.026134151E2,-4.632720947E-1,3.196244538E-1,3.338757753E-1,6.544110777E-1
1.028137951E2,3.178622723E-1,2.923757434E-1,7.427896261E-1,8.592184985E-1
1.030141751E2,3.807995617E-1,-8.801712394E-1,3.228044510E-2,9.595580983E-1
1.032145557E2,2.470658906E-2,6.656236053E-1,-3.380534947E-1,7.469574049E-1
1.034149367E2,-1.017724648E-1,-1.263835002E-3,-4.664952457E-1,4.774694191E-1
1.036153167E2,3.173042536E-1,5.631895065E-1,3.031269014E-1,7.139680161E-1
1.038156967E2,-2.776854672E-3,-1.569801420E-1,6.137959361E-1,6.335581481E-1
1.040160767E2,3.483436704E-1,-5.106098577E-2,5.081985593E-1,6.182364536E-1
1.042164558E2,-6.676420569E-1,-6.054452658E-1,-6.640136838E-1,1.119474903E0
1.044168348E2,-2.307875901E-1,-1.235020906E-1,-2.547281981E-1,3.652425674E-1
1.046172148E2,-1.437118053E-1,-1.626432985E-1,-1.088285595E-1,2.427953478E-1
1.048175948E2,1.038794994E0,-1.405139208E0,-3.334031701E-1,1.778951632E0
1.050179748E2,5.987588316E-2,4.975211918E-1,4.856519997E-1,6.978325892E-1
1.052183545E2,4.846929610E-1,-4.318205118E-1,-1.960168630E-1,6.780994259E-1
1.054187345E2,-3.419131041E-1,2.126803994E-1,-1.098398566E-1,4.173755109E-1
1.056191135E2,4.207621515E-2,-5.026097894E-1,-3.034785390E-1,5.886308112E-1
1.058194935E2,-3.308556676E-1,-3.642976284E-1,-5.521028116E-2,4.952034026E-1
1.060198725E2,-3.358754516E-2,1.308209002E-1,2.968997955E-1,3.261774359E-1
1.062202513E2,9.866015911E-1,-1.531952381E0,5.209216475E-1,1.895157028E0
1.064206312E2,6.275410950E-2,1.201408744E0,-2.958225608E-1,1.238883383E0
1.066210102E2,-2.878865302E-1,-6.406218559E-2,-3.191985190E-1,4.345921219E-1
1.068213892E2,2.511373758E-1,5.030961633E-1,2.159343213E-1,6.023316048E-1
1.070217683E2,1.004219294E0,4.593009949E-1,9.669392109E-1,1.467782420E0
1.072221466E2,1.485303491E-1,1.224988103E0,3.483692110E-1,1.282192741E0
1.074225256E2,-8.276032805E-1,3.256728351E-1,-7.726660371E-1,1.178135302E0
1.076229046E2,-1.290540248E-1,-2.447065897E-2,-4.457300901E-1,4.646816843E-1
1.078232826E2,-5.030952096E-1,1.857954413E-1,-3.950033486E-1,6.660723544E-1
1.080236616E2,5.886359811E-1,9.347365499E-1,8.284997344E-1,1.380810105E0
1.082240411E2,3.317351341E-1,1.929733306E-1,4.515153468E-1,5.925816517E-1
1.084244191E2,-6.766356230E-1,4.279285967E-1,-5.312117338E-1,9.608041196E-1
1.086247981E2,1.161371917E-1,-4.086357951E-1,-1.590408385E-1,4.536133250E-1
1.088251761E2,-9.342354536E-2,-4.555943012E-1,-3.650223464E-2,4.665045973E-1
1.090255551E2,-1.210565865E-1,-1.009975791E0,1.085122675E-1,1.022976396E0
1.092259332E2,-7.756691426E-2,8.073229194E-1,5.674500465E-1,9.898416427E-1
1.094263122E2,2.379813492E-1,-8.738539219E-1,-4.114542902E-1,9.947614952E-1
1.096266902E2,2.236024588E-1,9.776470661E-1,3.144268394E-1,1.051026205E0
1.098270682E2,2.138482332E-1,-6.921694614E-3,8.686098456E-2,2.309194824E-1
1.100274462E2,9.899699688E-2,7.636089921E-1,6.353308260E-2,7.726160436E-1
1.102278241E2,8.753643036E-1,-4.827149808E-1,1.044475555E0,1.445754337E0
1.104282021E2,1.611706428E-2,1.336987764E-1,1.051479802E-1,1.708543833E-1
1.106285801E2,-1.017563224E0,-5.122929811E-1,-5.126987100E-1,1.249295394E0
1.108289581E2,2.820984721E-1,-1.933626384E-1,-3.333368003E-1,4.775793969E-1
1.110293361E2,-3.928627968E-1,2.307057567E-2,1.822257191E-1,4.336814975E-1
1.112297131E2,1.350802183E0,-1.206754088E0,1.809856176E0,2.560566607E0
1.114300911E2,1.399920732E-1,5.838865042E-1,2.721684217E0,2.787128668E0
1.116304691E2,4.802162945E-1,-1.184633188E-2,1.003893256E0,1.112901476E0
1.118308461E2,-1.015598848E-1,1.027318954E0,1.484673381E0,1.808301328E0
1.120312241E2,-2.802130878E-1,-3.348381519E-1,1.757247567E0,1.810678043E0
1.122316010E2,-9.507561475E-2,3.531401753E-1,1.807733536E0,1.844355685E0
1.124319790E2,8.339329362E-1,5.652742386E-1,2.020095348E0,2.257379969E0
1.126323560E2,-7.596252859E-2,1.991817206E-1,1.229942203E0,1.248279410E0
1.128327340E2,-2.054913640E-1,-1.671773642E-1,-1.734029204E-1,3.166126096E-1
1.130331110E2,3.793973327E-1,-1.613429189E0,-7.328213751E-2,1.659055862E0
1.132334883E2,1.322244644E0,6.316370368E-1,6.488067508E-1,1.602574942E0
1.134338653E2,8.032544255E-1,1.602695733E-1,2.214605570E0,2.361224648E0
1.136342423E2,4.275617898E-1,-7.849777490E-2,-1.448998973E-2,4.349493586E-1
1.138346193E2,-2.924878597E-1,3.241538703E-1,-4.388661385E-1,6.190544138E-1
1.140349963E2,1.353185296E0,8.966107965E-1,1.416797787E-1,1.629446079E0
1.142353732E2,1.215184569E0,-1.240474939E0,1.020762682E0,2.014300888E0
1.144357502E2,-8.857893944E-1,1.401940942E0,-7.494165301E-1,1.819803943E0
1.146361262E2,2.831511796E-1,4.588226974E-1,-8.867928982E-1,1.037831635E0
1.148365032E2,2.328460455E0,3.975445032E-1,5.540798306E-1,2.426267541E0
1.150368802E2,1.213834524E0,3.676741719E-1,1.782519460E0,2.187682375E0
1.152372562E2,-9.767054319E-1,4.790489376E-1,-7.715055346E-1,1.333664941E0
1.154376332E2,5.247638226E-1,-1.444949359E-1,-4.949567318E-1,7.356888081E-1
1.156380092E2,1.669783711E0,8.446578979E-1,6.809435487E-1,1.991308295E0
1.158383862E2,4.514178932E-1,-1.851920784E-1,1.739721537E0,1.806849536E0
1.160387622E2,-6.022460014E-2,8.248023689E-2,-8.938853145E-1,8.997004765E-1
1.162391382E2,3.571420908E-1,-4.763075709E-1,-6.497918963E-1,8.812768485E-1
1.164395142E2,1.401363254E0,4.588133693E-1,2.826381288E-2,1.474831353E0
1.166398912E2,7.115575075E-1,-3.703176081E-1,8.898698092E-1,1.198047367E0
1.168402672E2,4.996676147E-1,-4.872110859E-2,-4.902675450E-1,7.017148547E-1
1.170406432E2,6.811621189E-1,1.566543430E-1,-3.686827049E-2,6.999154840E-1
1.172410188E2,8.665142059E-1,2.906400710E-2,-3.997018337E-1,9.547005507E-1
1.174413948E2,6.090451479E-1,-5.002326369E-1,-5.693402290E-1,9.722741278E-1
1.176417708E2,7.317471504E-1,8.230587095E-2,-1.402969956E-1,7.496074943E-1
1.178421468E2,-1.117958307E0,2.884626389E-1,-8.676363230E-1,1.444241759E0
1.180425218E2,-7.465135306E-2,-8.430401683E-1,-1.042642474E0,1.342904642E0
1.182428978E2,-8.370238543E-1,1.636984944E-1,-9.160180092E-1,1.251597029E0
1.184432738E2,4.508605599E-1,-4.158628583E-1,1.398601383E-1,6.291089093E-1
1.186436488E2,-6.833687425E-1,-1.833446622E-1,-3.654085100E-1,7.963237297E-1
1.188440248E2,2.916580141E-1,-1.554257870E0,-3.675485551E-1,1.623537454E0
1.190443998E2,-3.990700245E-1,-2.052647173E-1,-1.111414075E0,1.198595734E0
1.192447764E2,-1.640896052E-1,-7.414984703E-1,-7.621342540E-1,1.075915425E0
1.194451514E2,-4.628760740E-2,1.112827063E0,-1.115221232E-1,1.119358655E0
1.196455274E2,-1.581941992E-1,6.058453321E-1,-1.553303003E-2,6.263507373E-1
1.198459024E2,-3.747458160E-1,4.007824659E-1,1.293399371E-2,5.488426913E-1
1.200462774E2,-6.381665468E-1,-3.525918722E-1,-6.076864600E-1,9.491366622E-1
1.202466519E2,-1.391412765E-1,5.894641206E-2,-4.496262372E-1,4.743403076E-1
1.204470269E2,-2.407130301E-1,3.274221718E-1,-1.928158551E-1,4.498066201E-1
1.206474019E2,7.928855419E-1,7.819366455E-2,8.249185681E-1,1.146853249E0
1.208477769E2,2.792894542E-1,8.710322529E-2,5.194940567E-1,5.962077206E-1
1.210481519E2,-4.511871040E-1,-4.106027260E-2,-2.644437850E-1,5.245819900E-1
1.212485272E2,2.601718530E-2,1.024710387E-1,-2.829795182E-1,3.020837887E-1
1.214489022E2,-2.847478688E-1,-4.462231398E-1,-3.822717071E-1,6.529380501E-1
1.216492772E2,1.421107203E-1,-2.108937502E-1,-1.296557635E-1,2.854509550E-1
1.218496522E2,2.060416788E-1,4.053133130E-1,5.542561412E-1,7.168904555E-1
1.220500262E2,1.268999696E0,-6.027511954E-1,5.729554296E-1,1.517216911E0
1.222504017E2,-1.080686331E0,9.167169929E-1,-3.985712528E-1,1.472111420E0
1.224507757E2,4.041127264E-1,3.059953153E-1,-2.155727893E-1,5.508283364E-1
1.226511507E2,2.100442946E-1,-3.110316396E-1,7.787719965E-1,8.644912429E-1
1.228515247E2,3.515679762E-2,1.954684407E-1,-9.009020776E-2,2.180829137E-1
1.230518997E2,2.361578047E-1,2.433864325E-1,7.643280029E-1,8.361846449E-1
1.232522731E2,3.049705876E-3,-1.956747472E-1,-7.051709890E-1,7.318224041E-1
1.234526481E2,-3.127948344E-1,2.736249268E-1,-1.949996054E-1,4.590599690E-1
1.236530221E2,1.370632410E0,-5.076512694E-1,5.924806595E-1,1.577141828E0
1.238533961E2,3.977122009E-1,3.466568291E-1,6.147281453E-2,5.311542703E-1
1.240537701E2,-2.155870944E-1,2.272422165E-1,2.327881902E-1,3.902655016E-1
1.242541440E2,-8.225195408E-1,-7.329104096E-2,-4.028624892E-1,9.188080087E-1
1.244545180E2,-4.746773243E-1,-4.761538282E-2,-3.670894206E-1,6.019471983E-1
1.246548920E2,1.238521412E-1,3.260639310E-2,-1.424235553E-1,1.915385049E-1
1.248552660E2,2.580067515E-1,-1.341271102E-1,-1.156979357E-3,2.907901376E-1
1.250556400E2,-7.089373469E-1,7.025973201E-1,3.150672019E-1,1.046662552E0
1.252560140E2,5.383226871E-1,3.963973522E-1,5.530031025E-2,6.708057101E-1
1.254563870E2,-2.348560542E-1,1.409189105E-1,-6.638321280E-2,2.818195104E-1
1.256567610E2,4.813172519E-1,-1.342509151E0,6.180968881E-2,1.427521472E0
1.258571350E2,1.596268713E-1,-4.753039479E-1,-1.530424058E-1,5.242294907E-1
1.260575080E2,-3.165815398E-2,-2.597357929E-1,1.860874295E-1,3.210816909E-1
1.262578820E2,-8.955652118E-1,1.416268587E0,1.045992076E-1,1.678926667E0
1.264582550E2,1.434784085E-1,-9.288115799E-2,-1.886250377E-1,2.545434502E-1
1.266586290E2,6.491282582E-2,2.238519937E-1,9.159231931E-2,2.504247252E-1
1.268590020E2,-6.186890006E-1,4.371230602E-1,-7.492784858E-1,1.065490919E0
1.270593750E2,2.718749940E-1,1.837933995E-2,7.036817670E-1,7.546004517E-1
1.272597485E2,-1.999677867E-1,-2.212611735E-1,8.230288029E-1,8.753970716E-1
1.274601225E2,-4.008497596E-1,-4.054934680E-1,-1.364154816E0,1.478520830E0
1.276604955E2,-1.289833933E-1,4.954546690E-1,-5.226985216E-1,7.316596130E-1
1.278608685E2,-3.791260421E-1,-9.661963210E-3,-3.762221932E-1,5.342031898E-1
1.280612415E2,1.008137703E0,2.164034843E-1,3.023139834E-1,1.074507255E0
1.282616137E2,-6.856178045E-1,8.233681321E-1,6.819102764E-1,1.270042708E0
1.284619867E2,-3.905317187E-2,-1.598088294E-1,-4.719101191E-1,4.997631166E-1
1.286623587E2,4.608876407E-1,4.678514600E-1,-5.504345521E-2,6.590388364E-1
1.288627317E2,-7.335445285E-1,-3.568922877E-1,-3.191040456E-1,8.759492407E-1
1.290631047E2,2.354609668E-1,6.625019014E-2,-1.809483171E-1,3.042585217E-1
1.292634776E2,-4.349218011E-1,-2.252623588E-1,3.397831321E-1,5.961146536E-1
1.294638496E2,2.545918226E-1,-2.524456978E-1,1.732832170E-3,3.585370681E-1
1.296642226E2,-1.416551024E-1,3.594607413E-1,-8.452091217E-1,9.293312929E-1
1.298645946E2,-2.845522165E-1,3.997314870E-1,-9.696491808E-2,5.001573962E-1
1.300649676E2,-1.210077167E0,3.705712259E-1,-4.924119115E-1,1.357968804E0
1.302653404E2,5.045091510E-1,3.375038877E-2,5.314955488E-2,5.084225087E-1
1.304657124E2,-1.626241058E-1,3.870039582E-1,4.311767220E-1,6.017740682E-1
1.306660854E2,-2.069357932E-1,-1.196150064E0,1.286835968E-1,1.220719815E0
1.308664574E2,5.276776552E-1,-2.650138438E-1,-1.669268310E-1,6.136290509E-1
1.310668294E2,-4.241188765E-1,-1.160105094E-1,1.097746640E-1,4.531950315E-1
1.312672009E2,4.428776503E-1,1.315850392E-2,-2.561722100E-1,5.117987500E-1
1.314675729E2,-3.328810334E-1,-3.870087564E-1,3.755169213E-1,6.337180115E-1
1.316679449E2,1.941973460E-3,-1.607994288E-1,3.645428121E-1,3.984365563E-1
1.318683169E2,1.076446414E0,-4.378966093E-1,-8.332642317E-1,1.429971889E0
1.320686889E2,-6.619187444E-2,-2.932304442E-1,1.572926193E-1,3.392733791E-1
1.322690616E2,4.608698785E-1,-2.726738453E-1,-8.519585431E-2,5.422272627E-1
1.324694326E2,-6.759731174E-1,-2.437412292E-1,3.792905807E-1,8.125335604E-1
1.326698046E2,6.803727746E-1,-8.881498873E-2,-1.512449980E-2,6.863118571E-1
1.328701766E2,-4.374909401E-1,-1.593345642E0,3.910106048E-2,1.652778736E0
1.330705476E2,-2.284788191E-1,9.959465861E-1,-3.581090868E-1,1.082753107E0
1.332709188E2,-4.304051399E-2,3.826183975E-1,-2.587465644E-1,4.638955793E-1
1.334712898E2,1.224753410E-1,6.276249290E-1,3.881236613E-1,7.480329117E-1
1.336716618E2,8.380160332E-1,-1.093642712E-1,9.308632612E-1,1.257273966E0
1.338720328E2,8.295176923E-2,-3.816945478E-2,4.358034432E-1,4.452668238E-1
1.340724038E2,-1.600790858E0,-2.930434942E-1,-9.528125525E-1,1.885804237E0
1.342727758E2,-2.760958076E-1,5.637457967E-1,-2.579529285E-1,6.786589214E-1
1.344731468E2,-5.279712677E-1,-1.538115442E-1,-2.928900421E-1,6.230539522E-1
1.346735178E2,1.445739388E0,-5.958328247E-1,3.229215741E-1,1.596702063E0
1.348738888E2,6.838597059E-1,1.509511471E-1,4.947797954E-1,8.574715110E-1
1.350742598E2,1.586101204E-1,7.076020241E-1,-1.206704602E-1,7.351320662E-1
1.352746316E2,-1.575780064E-1,-1.351828724E-1,-3.029764891E-1,3.672873399E-1
1.354750026E2,-1.127282623E-3,-9.179832414E-3,-3.931858540E-1,3.932946171E-1
1.356753736E2,-2.460505068E-2,4.557676017E-1,-6.918907166E-1,8.288801355E-1
1.358757446E2,-4.644656926E-2,-2.146568149E-1,2.642928064E-1,3.436357366E-1
1.360761156E2,-3.123010695E-1,-5.159119368E-1,-3.513460606E-2,6.040956257E-1
1.362764848E2,-4.875278473E-1,7.716504335E-1,-9.468151331E-1,1.315137517E0
1.364768558E2,-1.257170457E-2,2.073026001E-1,-2.050177753E-1,2.918299230E-1
1.366772268E2,5.868852139E-1,-1.955012530E-1,-1.254700124E-2,6.187183700E-1
1.368775968E2,-9.260189533E-2,3.141123056E-1,7.571497560E-1,8.249347880E-1
1.370779678E2,1.465003043E-1,1.099825203E-1,6.677526236E-1,6.924247686E-1
1.372783383E2,1.356442422E-1,2.487438023E-1,-8.131481409E-1,8.610939198E-1
1.374787093E2,-6.309762001E-1,-2.827780545E-1,-3.178193271E-1,7.609885136E-1
1.376790793E2,-9.534371495E-1,2.188872546E-1,1.471868306E-1,9.892512277E-1
1.378794493E2,7.531038523E-1,-1.810083687E-1,1.687884033E-1,7.927288105E-1
1.380798193E2,-3.255678117E-1,1.944860369E-1,4.416701496E-1,5.821440883E-1
1.382801902E2,-8.278157711E-1,-7.460283041E-1,-4.820340276E-1,1.214163904E0
1.384805603E2,8.926470280E-1,1.547774673E-1,-1.376010180E-1,9.163562741E-1
1.386809303E2,-7.945475578E-1,-1.339243259E-2,6.828182936E-2,7.975886077E-1
1.388813003E2,1.117159128E0,4.752016366E-1,3.771631122E-1,1.271264381E0
1.390816703E2,3.411693275E-1,5.628713965E-1,3.144200146E-1,7.294385955E-1
1.392820401E2,-4.317948222E-1,-3.235238492E-1,5.359465480E-1,7.604953332E-1
1.394824101E2,-9.879497290E-1,3.211892843E-1,-1.291150093E0,1.657189122E0
1.396827801E2,3.370887786E-2,1.457399130E-1,-5.753793120E-1,5.945063191E-1
1.398831491E2,-6.050972939E-1,2.441524714E-2,1.889647217E-3,6.055926107E-1
1.400835191E2,9.752517939E-1,-3.034744561E-1,7.496126890E-1,1.266938037E0
1.402838890E2,-7.154421508E-2,1.128877282E0,2.468437105E-1,1.157762631E0
1.404842580E2,-1.706389785E-1,2.669019401E-1,-2.943220139E-1,4.324115568E-1
1.406846280E2,-1.472065300E-1,2.358825207E-1,2.011795342E-1,3.431960533E-1
1.408849980E2,-2.280271351E-1,2.930823863E-1,1.294974238E-1,3.932724784E-1
1.410853670E2,8.267428875E-1,-7.711777091E-2,-4.495916963E-1,9.442370708E-1
1.412857371E2,-1.181302592E-1,-6.234826893E-2,3.618181944E-1,3.856870112E-1
1.414861061E2,3.994411230E-1,-1.695829153E0,-3.542124927E-1,1.777879697E0
1.416864751E2,-5.666417256E-2,1.551119804E0,8.823473006E-2,1.554660363E0
1.418868441E2,3.619780764E-2,-2.629260905E-2,-1.283489764E-1,1.359229278E-1
1.420872141E2,-9.313409328E-1,1.326432824E0,3.988555670E-1,1.669103272E0
1.422875836E2,5.618273020E-1,-5.102573037E-1,5.919037461E-1,9.624772610E-1
1.424879526E2,-2.170281410E0,6.835520864E-1,-4.696643651E-1,2.323348762E0
1.426883216E2,1.246855736E0,1.132614017E0,-7.406893373E-1,1.840131634E0
1.428886906E2,-4.448990822E-1,-6.495547295E-2,-8.603751776E-4,4.496166668E-1
1.430890596E2,-1.980577409E-2,-5.516408086E-1,3.954100609E-2,5.534106446E-1
1.432894286E2,5.335955620E-1,5.439283252E-1,6.112140417E-1,9.768136217E-1
1.434897976E2,1.684488505E-1,3.332658410E-1,7.135168314E-1,8.053244096E-1
1.436901666E2,-5.158655047E-1,5.275261998E-1,-9.391094446E-1,1.194289605E0
1.438905346E2,-2.269925922E-1,7.870201021E-2,-1.431061625E-1,2.796408716E-1
1.440909036E2,7.531978935E-2,-1.369086802E-1,5.900552496E-3,1.563709497E-1
1.442912720E2,1.958250105E-1,1.848006994E-1,4.644473791E-1,5.368520291E-1
1.444916400E2,5.211762786E-1,1.674591750E-1,3.691176176E-1,6.602386722E-1
1.446920090E2,-5.747712404E-2,3.141525388E-1,-6.221506000E-1,6.993331155E-1
1.448923770E2,-2.237413526E-1,6.003490686E-1,-2.821155787E-1,7.000488531E-1
1.450927460E2,-5.300640464E-1,-7.552752495E-1,-1.407393664E-1,9.333896105E-1
1.452931141E2,1.402389705E-1,-4.851909578E-1,-1.735759974E-1,5.340466845E-1
1.454934831E2,1.023583263E-1,7.159358263E-1,2.622609138E-1,7.692997604E-1
1.456938511E2,1.315818578E-1,-1.018613935E0,5.371806398E-2,1.028481290E0
1.458942191E2,7.429164648E-1,4.627457261E-1,-2.822392285E-1,9.196289811E-1
1.460945881E2,-4.116485417E-1,4.721502364E-1,7.026652247E-2,6.303314618E-1
1.462949565E2,6.202893853E-1,7.046461701E-1,2.119789869E-1,9.624033653E-1
1.464953245E2,-1.336361021E-1,-1.608705521E-1,1.479465365E-1,2.561759551E-1
1.466956925E2,-9.133306146E-2,-1.225900888E0,5.822679773E-2,1.230676674E0
1.468960605E2,1.020700693E0,-3.329602182E-1,-6.709402800E-2,1.075729529E0
1.470964285E2,-2.867576666E-2,2.596250772E-1,-3.813543320E-1,4.622322001E-1
1.472967958E2,-9.117413759E-1,2.427250445E-1,-6.167566776E-1,1.127198555E0
1.474971638E2,3.571374416E-1,-2.677647173E-1,8.606835604E-1,9.695469494E-1
1.476975318E2,-3.185312748E-1,1.301019549E0,-4.557482153E-2,1.340220544E0
1.478978988E2,-1.450716376E0,-2.407131940E-1,-1.211333871E0,1.905216679E0
1.480982668E2,2.181162834E-1,-3.323849738E-1,1.968351305E-1,4.436198287E-1
1.482986357E2,-1.126003146E0,9.327935427E-2,-7.124335766E-1,1.335719179E0
1.484990027E2,5.215492845E-2,-2.732010186E-1,4.329568148E-2,2.814843675E-1
1.486993707E2,2.508641779E-1,8.062255383E-2,9.326628447E-1,9.691711994E-1
1.488997377E2,5.835907459E-1,-1.182559729E0,-5.590524077E-1,1.432328616E0
1.491001057E2,-3.798043728E-2,7.013682127E-1,-4.002049565E-1,8.084082450E-1
1.493004723E2,7.548235590E-4,-3.133305907E-1,-1.165962070E-1,3.343221565E-1
1.495008403E2,-1.181876436E-1,2.713438272E-1,4.655614495E-1,5.516731414E-1
1.497012073E2,5.283325315E-1,7.042564750E-1,7.731353641E-1,1.171687133E0
1.499015743E2,7.511070967E-1,-8.952635527E-1,6.646575332E-1,1.344406314E0
1.501019423E2,2.724628747E-1,-5.036110282E-1,-9.813153148E-1,1.136151325E0
1.503023095E2,-3.731725737E-2,-8.606110513E-2,-7.951467037E-1,8.006605847E-1
1.505026765E2,4.299209416E-1,-6.327321529E-1,3.078050613E-1,8.245762240E-1
1.507030435E2,4.827750325E-1,-5.977715850E-1,6.754518747E-1,1.023053193E0
1.509034105E2,6.370958686E-1,-3.391211629E-1,7.152062058E-1,1.016077864E0
1.511037775E2,-9.986482859E-1,7.951599360E-1,-1.312817216E0,1.831138106E0
1.513041445E2,-4.234755933E-1,2.771601677E-1,-1.151113808E-1,5.190375388E-1
1.515045115E2,-2.908426523E-1,3.146817982E-1,2.195810825E-1,4.814872110E-1
1.517048785E2,7.323467731E-1,-1.926873922E-1,4.334765971E-1,8.725607070E-1
1.519052455E2,-1.289788038E-1,2.997496724E-1,8.483616710E-1,9.089570522E-1
1.521056125E2,5.748344064E-1,-2.774706185E-1,6.915303320E-2,6.420332397E-1
1.523059780E2,7.490713596E-1,-4.813343287E-2,9.563190341E-1,1.215718234E0
1.525063450E2,-3.686430454E-1,-5.319339037E-1,5.025830865E-1,8.194151156E-1
1.527067120E2,9.083266854E-1,1.271557435E-2,2.823074162E-1,9.512710079E-1
1.529070780E2,6.012864709E-1,-2.216740996E-1,8.259972930E-1,1.045445529E0
1.531074450E2,1.094449520E0,-1.838071346E-1,7.904835939E-1,1.362523074E0
1.533078108E2,7.093634009E-1,-1.180876419E-1,-2.229314566E0,2.342431335E0
1.535081778E2,-2.772053778E-1,-4.254582822E-1,2.596090436E-1,5.703108161E-1
1.537085438E2,-2.858739197E-1,1.559543759E-1,-6.032788157E-1,6.855588923E-1
1.539089108E2,1.770540327E-1,-4.332039952E-1,3.788082674E-2,4.695197429E-1
1.541092768E2,5.731303692E-1,-3.134933412E-1,5.580618978E-2,6.556453507E-1
1.543096431E2,8.257229924E-1,7.676984668E-1,-8.063236475E-1,1.386123090E0
1.545100091E2,-7.306141406E-2,-4.977794588E-1,-3.218040168E-1,5.972270800E-1
1.547103751E2,-7.226437926E-1,-2.876118943E-2,-7.646287680E-1,1.052472522E0
1.549107421E2,6.349166632E-1,2.052843124E-1,-6.385328174E-1,9.235718580E-1
1.551111081E2,-2.091279507E0,1.001166821E0,-3.239433169E-1,2.341094669E0
1.553114742E2,-3.767009825E-2,-6.507677436E-1,-1.058566809E0,1.243173914E0
1.555118402E2,7.070141435E-1,3.664335907E-1,-5.539324284E-1,9.700431488E-1
1.557122062E2,1.529162049E0,1.037627101E0,-3.277553916E-1,1.876813835E0
1.559125722E2,6.715236306E-1,-1.467085004E0,-4.950057566E-1,1.687694609E0
1.561129372E2,7.671917230E-2,-1.232820228E-1,4.121098518E-1,4.369425803E-1
1.563133029E2,-3.743353188E-1,-2.448108792E-1,5.127201080E-1,6.803978297E-1
1.565136689E2,-1.151510119E0,3.745219111E-1,-9.249646664E-1,1.523745993E0
1.567140349E2,-4.140916467E-1,-5.253611207E-1,-6.225321889E-1,9.137956693E-1
1.569143999E2,-8.578162193E-1,-1.275644451E-1,-2.957208455E-1,9.162817101E-1
1.571147659E2,-3.203698695E-1,6.465830803E-1,-3.652929887E-2,7.225239945E-1
1.573151327E2,-4.185003787E-2,3.023889363E-1,1.242238164E0,1.279197463E0
1.575154977E2,5.454353690E-1,-5.509328246E-1,2.353508919E-1,8.101955081E-1
1.577158637E2,2.570093870E-1,-2.735427022E-1,1.888395697E-1,4.201664171E-1
1.579162287E2,-6.253654957E-1,-4.918667674E-1,-9.687271900E-3,7.956813202E-1
1.581165947E2,8.504875302E-1,-5.468109250E-1,1.126632690E0,1.513813874E0
1.583169590E2,1.377097070E-1,-1.195694655E-1,5.233190656E-1,5.541873915E-1
1.585173240E2,6.201039255E-2,-4.104813039E-1,4.273516536E-1,5.957932741E-1
1.587176900E2,-1.614152670E0,1.656942815E-1,-1.325446725E0,2.095173610E0
1.589180550E2,2.854318619E-1,-2.956144512E-1,-5.261982083E-1,6.676404766E-1
1.591184200E2,4.348424673E-1,-2.001156658E-1,-5.950716734E-1,7.637044897E-1
1.593187846E2,4.076655209E-1,7.311650515E-1,4.800504148E-1,9.650087617E-1
1.595191496E2,1.589972019E0,-9.313730001E-1,-2.339901179E-1,1.857476262E0
1.597195146E2,-1.048007607E0,-5.754571557E-1,-8.920288682E-1,1.491705864E0
1.599198796E2,-2.639109790E-1,-6.695130467E-1,-7.109868526E-1,1.011631864E0
1.601202446E2,-5.949785709E-1,-5.248790383E-1,-8.114710450E-1,1.134893282E0
1.603206102E2,1.103275657E0,4.796281457E-2,-9.705665112E-1,1.470209835E0
1.605209752E2,-3.480753601E-1,6.098769307E-1,-9.604733437E-2,7.087534249E-1
1.607213402E2,-2.053999901E-1,-2.634991407E-1,-1.152924895E0,1.200356933E0
1.609217052E2,6.319249272E-1,4.445656538E-1,-1.032225117E-1,7.795015209E-1
1.611220702E2,1.375518739E-2,-8.125219494E-2,-5.856056213E-1,5.913755728E-1
1.613224346E2,2.768207192E-1,3.626337051E-1,-1.830057651E-1,4.915526673E-1
1.615227996E2,-1.744018942E-1,-1.188639328E-1,-1.408298165E-1,2.537275949E-1
1.617231646E2,1.706822217E-1,8.401981741E-2,2.443351746E-1,3.096634109E-1
1.619235286E2,-4.011584446E-2,-6.404042840E-1,-3.955205083E-1,7.537661444E-1
1.621238936E2,-6.806185842E-1,1.689592600E-1,-3.263642490E-1,7.735001691E-1
1.623242576E2,-1.183630005E-1,-4.971094728E-1,-6.228576899E-1,8.056545970E-1
1.625246226E2,1.077315688E0,-9.840645790E-1,-1.483137459E-1,1.466625090E0
1.627249866E2,-3.530206382E-1,8.189224005E-1,5.449066162E-1,1.045074490E0
1.629253516E2,-2.538510263E-1,-5.851710439E-1,-4.449145198E-1,7.776981574E-1
1.631257156E2,1.020457387E0,-7.944615483E-1,1.189293116E-1,1.298709595E0
1.633260793E2,6.582187116E-2,8.744230866E-1,-4.722096026E-2,8.781674512E-1
1.635264433E2,-1.794040054E-1,-7.451924682E-1,3.608350828E-2,7.673328035E-1
1.637268083E2,5.620028973E-1,5.059402063E-2,7.919620872E-1,9.724252974E-1
1.639271723E2,-4.048925936E-1,7.079765797E-1,7.514278293E-1,1.108969176E0
1.641275363E2,-4.783823788E-1,3.988474011E-1,-3.948776722E-1,7.374668303E-1
1.643279001E2,-6.082283854E-1,9.921207428E-1,7.749117911E-2,1.166297655E0
1.645282641E2,-7.447235584E-1,5.276305079E-1,-2.913654745E-1,9.580714854E-1
1.647286281E2,-1.606445670E0,-7.108139992E-1,9.787716269E-1,2.010949559E0
1.649289921E2,-6.743895262E-2,-1.817597300E-1,3.236691058E-1,3.772880886E-1
1.651293561E2,-2.515569031E-1,-1.688702852E-1,-4.733840004E-2,3.066577454E-1
1.653297206E2,1.570869327E0,2.323355079E-1,5.070115998E-2,1.588767081E0
1.655300846E2,-7.450438738E-1,-4.808813035E-1,-9.401412308E-2,8.917263354E-1
1.657304486E2,9.762565792E-2,1.430567265E0,-3.612064421E-1,1.478689812E0
1.659308116E2,3.662659228E-1,-2.442032814E0,9.663277268E-1,2.651690832E0
1.661311756E2,-8.580272794E-1,3.723538518E-1,1.447140336E0,1.723099926E0
1.663315393E2,-3.515489101E-1,-1.723168254E0,-1.319920421E0,2.198882758E0
1.665319023E2,1.092216745E-1,-2.407600433E-1,-3.588925302E-1,4.457562348E-1
1.667322663E2,-5.115609169E-1,9.058888555E-1,-6.071541309E-1,1.204560222E0
1.669326293E2,1.522527039E-1,-4.115156531E-1,1.497781128E-1,4.636372523E-1
1.671329933E2,-1.829160899E-1,5.020391941E-1,3.395313323E-1,6.330743826E-1
1.673333565E2,-1.523497701E-1,4.697949290E-1,-2.338707596E-1,5.464551766E-1
1.675337205E2,5.616520643E-1,-4.176852107E-1,-1.836534142E-1,7.236315037E-1
1.677340835E2,-5.194959641E-1,-7.908554673E-1,-3.035485744E-1,9.937153334E-1
1.679344465E2,-2.704199851E-1,2.000099234E-2,-1.381382197E-1,3.043175574E-1
1.681348095E2,-1.364327371E-1,4.647659659E-1,7.060418725E-1,8.562221794E-1
1.683351731E2,4.547939599E-1,-5.445333719E-1,1.576765329E-1,7.267847192E-1
1.685355361E2,5.321748257E-1,5.466559529E-1,-1.203852966E-1,7.723570389E-1
1.687358991E2,-2.380905002E-1,-2.554944158E-1,-1.806242466E-1,3.931788413E-1
1.689362621E2,4.626551643E-2,1.169230044E-1,2.351443768E-1,2.666540172E-1
1.691366251E2,1.253409237E-1,2.277810574E-1,5.395823121E-1,5.989521089E-1
1.693369884E2,-1.518480033E-1,4.761657715E-1,6.360512972E-1,8.089208309E-1
1.695373514E2,-2.110525221E-1,-5.212643743E-1,-4.265302718E-1,7.058241903E-1
1.697377144E2,-5.198444128E-1,2.046743780E-1,-4.489476979E-1,7.167174129E-1
1.699380764E2,4.081163108E-1,-3.026412427E-1,-8.938780054E-3,5.081638975E-1
1.701384394E2,5.648164749E-1,-1.120638624E-1,3.560332954E-1,6.770049239E-1
1.703388021E2,1.176390648E-1,3.839164376E-1,3.281157911E-1,5.185467703E-1
1.705391651E2,4.406862855E-1,-5.372152328E-1,-1.588170826E-1,7.127604607E-1
1.707395281E2,5.301037431E-1,-3.374394476E-1,1.768761128E-1,6.528097108E-1
1.709398901E2,-3.829370737E-1,-7.451312989E-2,-2.778526247E-1,4.789520748E-1
1.711402531E2,7.929255366E-1,-3.429664373E-1,5.939871669E-1,1.048416729E0
1.713406154E2,9.431482852E-2,-6.477081776E-2,3.470109403E-1,3.653862866E-1
1.715409784E2,4.955805838E-1,-9.048459530E-1,-2.958787084E-1,1.073261629E0
1.717413404E2,-4.687840119E-2,5.970892310E-1,-7.394793630E-2,6.034744664E-1
1.719417034E2,2.022994123E-2,4.186011851E-1,-2.375731617E-1,4.817439256E-1
1.721420654E2,2.432573587E-1,-4.576246813E-2,-2.472609654E-2,2.487563585E-1
1.723424281E2,8.623844385E-2,6.538233161E-1,2.475980967E-1,7.044336842E-1
1.725427901E2,5.862950087E-1,4.244209528E-1,5.513272882E-1,9.098553517E-1
1.727431521E2,-1.537242889E0,4.422354996E-1,-1.426579118E0,2.143318902E0
1.729435151E2,-1.127731204E-1,-7.017459869E-1,-1.887059957E-1,7.353741630E-1
1.731438771E2,-1.214449644E0,-6.407049298E-1,-8.036919236E-1,1.591009570E0
1.733442391E2,2.946733236E-1,-2.210720778E-1,-2.228413820E-1,4.305386310E-1
1.735446011E2,-1.178491488E-1,5.816112757E-1,5.372052789E-1,8.004683688E-1
1.737449631E2,1.413915515E0,-1.147800922E0,2.180926204E-1,1.834166959E0
1.739453251E2,2.087567002E-1,4.429222047E-1,1.155609637E-1,5.031041400E-1
1.741456881E2,-1.176434830E-1,-2.843486071E-1,-2.865892947E-1,4.205086720E-1
1.743460507E2,-2.211722285E-1,2.078827471E-1,2.321314812E-1,3.821222523E-1
1.745464127E2,1.040714458E-1,-1.191137009E-3,5.677310228E-1,5.771921681E-1
1.747467747E2,5.849328041E-1,-1.313058734E0,1.407563984E-1,1.444327521E0
1.749471367E2,-4.389237985E-2,-3.359099030E-1,-1.052392840E0,1.105573469E0
1.751474977E2,-5.417473912E-1,-2.578615844E-1,-6.787319779E-1,9.059028262E-1
1.753478587E2,6.019482762E-2,2.498483807E-1,-7.490321994E-2,2.676903490E-1
1.755482207E2,3.321145177E-1,4.329861104E-1,5.664177537E-1,7.865151597E-1
1.757485827E2,1.780656874E-1,7.041158080E-1,5.717301369E-1,9.243169421E-1
1.759489447E2,2.258884162E-1,7.609999776E-1,2.745428085E-1,8.399525559E-1
1.761493067E2,-9.210355282E-1,-2.361995131E-1,-6.755157709E-1,1.166369672E0
1.763496681E2,-5.078351125E-2,-1.944320649E-1,-5.714599490E-1,6.057633748E-1
1.765500301E2,4.656137228E-1,-5.936072469E-1,-2.372721732E-1,7.908626850E-1
1.767503921E2,4.769206345E-1,5.706000328E-1,7.854189873E-1,1.081628714E0
1.769507531E2,3.719391823E-1,-8.448699713E-1,2.823231556E-2,9.235480969E-1
1.771511151E2,8.287204504E-1,5.355030298E-1,-1.382174641E-1,9.963157869E-1
1.773514760E2,-4.425412118E-1,-2.329968810E-1,-4.837948978E-1,6.958360251E-1
1.775518380E2,-3.197913766E-1,4.973862469E-1,7.241801023E-1,9.349312401E-1
1.777521990E2,2.351518720E-1,-4.290483594E-1,7.426528931E-1,8.893324559E-1
1.779525610E2,-1.003557444E0,3.839050829E-1,-3.982201815E-1,1.145901378E0
1.781529220E2,3.856932521E-1,5.089868903E-1,-3.891989887E-1,7.478654906E-1
1.783532830E2,3.762204945E-2,2.438871711E-1,-3.101386428E-1,3.963361561E-1
1.785536450E2,-6.224400401E-1,2.442212850E-1,-5.042586923E-1,8.374678909E-1
1.787540060E2,8.697230220E-1,4.897609651E-1,6.751511693E-1,1.205036530E0
1.789543670E2,-5.618910864E-2,1.100519896E0,1.597956717E-1,1.113479193E0
1.791547280E2,-2.698933780E-1,3.046447635E-1,-3.010844886E-1,5.062635052E-1
1.793550891E2,-1.812784672E-1,-4.651996493E-1,2.105171084E-1,5.418395052E-1
1.795554501E2,-8.249789476E-1,-4.706901312E-1,-4.113518894E-1,1.035060308E0
1.797558111E2,5.329048038E-1,2.351008654E-1,-2.111596465E-1,6.195549557E-1
1.799561721E2,2.597528994E-1,4.910533726E-1,6.117902994E-1,8.263730114E-1
1.801565331E2,1.248093128E0,-8.189943433E-1,-3.422799408E-1,1.531549460E0
1.803568946E2,8.923969418E-2,1.803575754E-1,-9.305248968E-3,2.014427107E-1
1.805572556E2,-3.063243330E-1,-4.057729244E-1,-5.624714494E-1,7.581954857E-1
1.807576166E2,6.567844152E-1,-5.114692077E-2,1.339476109E-1,6.722527338E-1
1.809579776E2,6.624825001E-1,5.999559164E-1,1.013068676E0,1.350976797E0
1.811583386E2,2.806344256E-2,1.526810676E-1,6.120164990E-1,6.313978621E-1
1.813586977E2,-1.791050196E0,7.017404586E-2,-9.798328876E-1,2.042757374E0
1.815590587E2,3.195739985E-1,-3.483400345E-1,-3.132326603E-1,5.670829036E-1
1.817594197E2,-9.371959418E-2,-5.327450037E-1,-7.164553553E-2,5.456497815E-1
1.819597797E2,5.580049157E-1,-2.727267332E-2,2.277167290E-1,6.032977651E-1
1.821601407E2,7.916031778E-2,9.329887629E-1,4.386123419E-1,1.033980258E0
1.823605015E2,-7.323434949E-2,1.391661167E-1,-6.384777427E-1,6.575593554E-1
1.825608625E2,2.399014235E-1,-3.704443574E-1,2.423130125E-1,5.034851645E-1
1.827612225E2,-5.996660590E-1,-2.489614338E-1,-2.427600473E-1,6.931908961E-1
1.829615835E2,-6.243224144E-1,-7.026796788E-2,4.945977926E-1,7.995892951E-1
1.831619435E2,2.851001620E-1,2.603767812E-1,8.153089285E-1,9.021124206E-1
1.833623031E2,3.518653810E-1,-6.979625225E-1,8.234626055E-2,7.859655436E-1
1.835626631E2,3.034643829E-1,4.191873968E-1,-2.003036290E-1,5.549146323E-1
1.837630241E2,-2.746645808E-1,-2.970417589E-2,-6.269692779E-1,6.851375376E-1
1.839633841E2,-1.117584407E-1,4.413934052E-1,2.521097101E-2,4.560193859E-1
1.841637441E2,4.495185614E-1,2.966830432E-1,5.896647573E-1,7.986189899E-1
1.843641045E2,-2.541015148E-1,9.135488272E-1,6.084713340E-1,1.126666057E0
1.845644645E2,-1.055682063E0,3.435760140E-1,-9.321695566E-1,1.449637602E0
1.847648245E2,2.200468630E-1,-6.224269792E-2,1.886924058E-1,2.964786659E-1
1.849651845E2,-5.605373532E-2,-5.130303502E-1,-4.885779023E-1,7.106690707E-1
1.851655445E2,5.868222117E-1,-1.548679266E-2,-4.741530716E-1,7.546000824E-1
1.853659045E2,4.747534916E-2,8.334449530E-1,7.025280595E-1,1.091068317E0
1.855662645E2,2.099574059E-1,3.690283373E-2,-2.427470982E-1,3.230635930E-1
1.857666245E2,5.197699070E-1,1.552013457E-1,3.360832930E-1,6.381223971E-1
1.859669835E2,-2.662463188E-1,-3.994234204E-1,-4.521742463E-1,6.594601732E-1
1.861673435E2,9.137804806E-2,3.250961006E-1,4.159338772E-1,5.357596593E-1
1.863677031E2,2.748292387E-1,9.795490652E-3,7.615108490E-1,8.096454997E-1
1.865680621E2,9.564867360E-4,-3.497243822E-1,1.587872803E-1,3.840852233E-1
1.867684221E2,-2.986489534E-1,4.247930944E-1,-5.905865431E-1,7.864050072E-1
1.869687821E2,-5.423013568E-1,4.643362164E-1,-6.674609780E-1,9.773448934E-1
1.871691411E2,1.987968758E-2,-8.272723109E-2,-5.019169673E-2,9.878361788E-2
1.873695007E2,8.155962825E-1,-1.669586003E-1,5.732992291E-1,1.010813769E0
1.875698597E2,1.098517627E-1,3.569324911E-1,7.001348734E-1,7.935093282E-1
1.877702197E2,-5.019821525E-1,7.480145097E-1,-4.145048857E-1,9.916279990E-1
1.879705787E2,2.479430437E-1,-6.780256033E-1,-1.669483036E-1,7.409900186E-1
1.881709377E2,-6.779017299E-2,-3.904995024E-1,-3.940879703E-1,5.589192225E-1
1.883712980E2,1.473295093E-1,-1.673999280E-1,-1.996583939E-1,2.993195524E-1
1.885716570E2,4.724979401E-1,3.380221426E-1,3.722662926E-1,6.899967137E-1
1.887720160E2,3.766581118E-1,-6.346496940E-1,1.710652858E-1,7.575717123E-1
1.889723750E2,3.598227799E-1,-2.822498977E-1,-1.921018362E-1,4.960247506E-1
1.891727340E2,-7.781729698E-1,-2.643929422E-1,-5.284740329E-1,9.771087976E-1
1.893730936E2,7.960634232E-1,9.124197960E-1,6.154186130E-1,1.358295596E0
1.895734526E2,1.131722853E-1,2.912142575E-1,4.765620530E-1,5.698465585E-1
1.897738116E2,1.824319959E-1,-2.993327677E-1,5.743291974E-1,6.728562744E-1
1.899741706E2,-1.163972020E0,1.881981790E-1,-1.013328433E0,1.554697376E0
1.901745296E2,-2.522310019E-1,-1.945634931E-1,-4.721748531E-1,5.695827622E-1
1.903748877E2,-1.544705629E-1,8.215942234E-2,-3.591239452E-1,3.994763241E-1
1.905752467E2,5.608797669E-1,2.706454098E-1,6.628587246E-1,9.095145626E-1
1.907756057E2,1.244289353E-1,5.647219419E-1,6.094251871E-1,8.401145698E-1
1.909759647E2,-4.598882198E-1,3.903579712E-1,-5.873748064E-1,8.419534925E-1
1.911763227E2,-7.480234653E-2,-2.464521974E-1,2.417496778E-2,2.586861143E-1
1.913766827E2,-1.618138105E-1,-1.079219505E-1,-1.912639849E-2,1.954396986E-1
1.915770417E2,3.627540171E-1,-1.420170069E-1,-4.093412682E-2,3.917076843E-1
1.917773997E2,-7.307506353E-2,6.441354156E-1,4.911310971E-1,8.133020060E-1
1.919777587E2,5.348406434E-1,-1.876133494E-2,-2.594875395E-1,5.947606953E-1
1.921781167E2,1.603734121E-2,-2.275744230E-1,2.472075447E-2,2.294742469E-1
1.923784747E2,-3.419762552E-1,-5.639936924E-1,-2.149857730E-1,6.937258297E-1
1.925788327E2,3.715322316E-1,5.697620511E-1,1.847958118E-1,7.048506835E-1
1.927791917E2,1.590210944E-1,2.052101307E-2,4.873873293E-1,5.130840372E-1
1.929795497E2,-3.809644878E-1,8.916178346E-1,1.056141406E-1,9.753310467E-1
1.931799077E2,4.713488221E-1,-6.954160333E-1,5.849932507E-2,8.421373656E-1
1.933802670E2,2.447296865E-2,2.160604745E-1,-9.995422512E-2,2.393154863E-1
1.935806250E2,-2.659790218E-1,3.456486464E-1,-1.314169765E-1,4.555087798E-1
1.937809830E2,-1.229997538E-2,8.579007983E-1,5.992894173E-1,1.046562408E0
1.939813410E2,-1.276357174E-1,5.222709179E-1,1.051975250E0,1.181401589E0
1.941816990E2,-1.134086102E-1,-5.436417088E-2,-7.127026916E-1,7.237141027E-1
1.943820575E2,2.855820060E-1,-1.814699471E-1,2.359208912E-1,4.124888977E-1
1.945824155E2,-5.957030654E-1,-6.227970123E-1,-3.305253685E-1,9.230304870E-1
1.947827735E2,4.494913295E-2,-1.011390567E0,-3.984537721E-1,1.087978268E0
1.949831315E2,1.430458575E-1,1.091755629E0,5.579271913E-1,1.234372400E0
1.951834895E2,9.301017039E-3,5.405858755E-1,4.320133924E-1,6.920658704E-1
1.953838475E2,1.619607449E0,-1.411227733E-1,3.416884243E-1,1.661263045E0
1.955842055E2,-6.438029557E-2,-2.268101424E-1,1.224169508E-1,2.656568708E-1
1.957845635E2,-4.295851588E-1,1.146750927E0,4.369752854E-2,1.225353243E0
1.959849215E2,-6.804155707E-1,4.510680735E-1,5.612981915E-1,9.906984484E-1
1.961852785E2,-1.634302735E-1,-7.097713649E-2,1.194157600E0,1.207377150E0
1.963856361E2,-3.368173838E-1,-4.147288203E-1,-7.395036817E-1,9.123111528E-1
1.965859941E2,-5.549971461E-1,-3.609670699E-1,-4.122702181E-1,7.799267853E-1
1.967863511E2,-7.094711065E-1,4.337328374E-1,-5.624724030E-1,1.003916645E0
1.969867091E2,5.624815226E-1,7.840518355E-1,6.755623221E-1,1.177924953E0
1.971870661E2,-6.717692595E-3,6.335213780E-1,5.803512931E-1,8.591868756E-1
1.973874241E2,-4.040973783E-1,9.837550521E-1,-2.531091571E-1,1.093221359E0
1.975877811E2,6.640424728E-1,-3.008017838E-1,1.538807154E-1,7.450593221E-1
1.977881391E2,-4.517688155E-1,-2.551456988E-1,-4.617602229E-1,6.945623757E-1
1.979884961E2,-1.072831869E0,1.337594628E0,-3.022139370E-1,1.741109093E0
1.981888531E2,2.039408982E-1,1.655431539E-1,8.368084431E-1,8.770660158E-1
1.983892098E2,6.316315532E-1,-6.989011168E-1,7.273762822E-1,1.190166982E0
1.985895678E2,3.221170604E-1,1.050165296E-2,-9.943994880E-2,3.372802822E-1
1.987899248E2,-3.337780237E-1,-1.248935908E-1,1.493001878E-1,3.863893428E-1
1.989902818E2,1.082909226E0,-3.714228272E-1,-3.362917304E-1,1.193205530E0
1.991906388E2,1.020560190E-1,5.204602480E-1,4.860095978E-1,7.193744713E-1
1.993909962E2,-2.829430997E-2,1.724571288E-1,5.934858322E-1,6.186820365E-1
1.995913532E2,-1.655799270E0,2.554387748E-1,-1.364181876E0,2.160535207E0
1.997917102E2,-2.489275485E-1,-3.124117255E-1,-6.246039867E-1,7.414149654E-1
1.999920672E2,-5.649635196E-1,3.850914538E-1,-7.691388726E-1,1.029103402E0
2.001924242E2,1.001253963E0,-1.051427841E0,3.077501953E-1,1.484156388E0
2.003927809E2,-4.984062910E-2,1.094191551E0,8.723385334E-1,1.400254890E0
2.005931379E2,1.614912748E-1,-2.824856341E-1,-1.027186736E-1,3.412164873E-1
2.007934949E2,1.224058867E-1,2.249515057E-1,9.021752328E-2,2.715245523E-1
2.009938519E2,-3.264930844E-1,-5.392015576E-1,-1.828834713E-1,6.563401694E-1
2.011942079E2,-2.045050263E-3,2.293133177E-2,2.745631337E-1,2.755266641E-1
2.013945653E2,1.909523308E-1,1.679551154E-1,8.848102689E-1,9.206307215E-1
2.015949223E2,3.351336420E-1,-6.057416797E-1,2.578365803E-1,7.387267713E-1
2.017952783E2,6.222448349E-1,7.353523970E-1,-2.809209824E-1,1.003418348E0
2.019956353E2,-1.736957431E-1,3.915217817E-1,-3.140779436E-1,5.311350782E-1
2.021959913E2,1.924426854E-1,1.357131481E0,-1.773861647E-1,1.382138161E0
2.023963481E2,-1.961750835E-1,-1.299905032E-1,7.856575251E-1,8.201462924E-1
2.025967041E2,6.331251934E-3,1.563177556E-1,4.916411340E-1,5.159324860E-1
2.027970611E2,-4.270709455E-1,-6.046748161E-1,-4.730508327E-1,8.785205269E-1
2.029974171E2,-3.956686854E-1,3.873019516E-1,-5.092909932E-1,7.522857344E-1
2.031977741E2,-3.810298145E-1,-8.008387685E-1,-5.879284143E-1,1.064042421E0
2.033981305E2,7.353878617E-1,-1.415674984E-1,-7.195498794E-2,7.523391417E-1
2.035984865E2,5.822087824E-2,5.121530294E-1,3.201119006E-1,6.067635661E-1
2.037988425E2,3.388476670E-1,3.218623400E-1,-4.110217467E-2,4.691508244E-1
2.039991995E2,-1.230295375E-1,2.725952864E-1,1.711577624E-1,3.445858919E-1
2.041995555E2,-2.333904849E-3,-5.922369361E-1,-4.550016820E-1,7.468444056E-1
2.043999113E2,-1.017130613E-1,1.024413928E-1,2.438412905E-1,2.833696539E-1
2.046002673E2,5.088056922E-1,7.266803384E-1,7.238187790E-1,1.144928457E0
2.048006233E2,2.446771264E-1,-5.813742876E-1,5.874203444E-1,8.619313310E-1
2.050009793E2,-1.408156753E0,7.800484300E-1,-1.015455246E0,1.903294604E0
2.052013353E2,-2.923059165E-1,-4.772496223E-1,-3.689928949E-1,6.703474527E-1
2.054016906E2,-1.089214236E-1,-1.751398295E-1,-4.322823882E-1,4.789633593E-1
2.056020466E2,2.633139789E-1,4.748268127E-1,3.290940821E-1,6.348997310E-1
2.058024026E2,2.356504835E-2,2.264072448E-1,2.694297731E-1,3.527151182E-1
2.060027586E2,-6.396823525E-1,8.865106851E-2,-5.209795833E-1,8.297422794E-1
2.062031136E2,1.851362437E-1,2.188242078E-1,6.756003946E-2,2.944890857E-1
2.064034705E2,-1.140254855E0,-4.747794271E-1,-7.508810759E-1,1.445482283E0
2.066038265E2,7.611622214E-1,-6.414047480E-1,-5.221825466E-2,9.967420550E-1
2.068041825E2,-1.511586159E-1,3.149078190E-1,2.693032026E-1,4.410669752E-1
2.070045375E2,-8.144760504E-4,-7.957895398E-1,-3.031044006E-1,8.515597059E-1
2.072048935E2,5.564779043E-1,-6.276648492E-2,1.768593341E-1,5.872703923E-1
2.074052480E2,-3.407473862E-2,-2.745904326E-1,-4.366441965E-1,5.169324403E-1
2.076056040E2,-3.363805115E-1,1.317023337E-1,5.817753673E-1,6.848064918E-1
2.078059590E2,3.261436522E-1,3.390689492E-1,6.447219253E-1,7.981251751E-1
2.080063150E2,2.341493517E-1,-4.755832255E-1,2.932294607E-1,6.057960382E-1
2.082066700E2,-5.696485639E-1,7.408180833E-1,-5.056346655E-1,1.062533451E0
2.084070265E2,1.280903965E-1,-9.910580516E-2,-2.766408026E-1,3.205608273E-1
2.086073815E2,1.664033383E-1,-4.869882464E-1,9.462329000E-2,5.232601554E-1
2.088077365E2,8.002035022E-1,2.053698897E-1,5.525489450E-1,9.938877065E-1
2.090080925E2,3.929990157E-2,3.455998898E-1,5.973059535E-1,6.912005267E-1
2.092084475E2,-5.967110395E-1,1.196501493E0,-1.053958535E0,1.702500656E0
2.094088020E2,-5.618926883E-1,-4.708181322E-1,-7.114849240E-2,7.365155902E-1
2.096091570E2,-2.981419861E-1,-5.948798060E-1,-3.203254640E-1,7.384978202E-1
2.098095120E2,9.473151565E-1,1.285037100E-1,-2.994087636E-1,1.001780823E0
2.100098670E2,-1.052245051E-1,4.087672234E-1,1.822722852E-1,4.597673600E-1
2.102102230E2,-2.535809875E-1,-1.035656929E0,-2.594956458E-1,1.097372581E0
2.104105787E2,3.787068725E-1,1.869486272E-1,8.690801263E-2,4.311863717E-1
2.106109337E2,-5.136404634E-1,-4.586849213E-1,-6.061004996E-1,9.173746226E-1
2.108112877E2,-1.478514522E-1,4.453924000E-1,-8.732294291E-2,4.773465599E-1
2.110116427E2,7.751036882E-1,-1.215442121E-1,5.050669312E-1,9.330869885E-1
2.112119977E2,-2.930588126E-1,-4.968297854E-2,3.208814263E-1,4.373977089E-1
2.114123527E2,-1.612526298E0,4.906268716E-1,-1.384110570E0,2.180990109E0
2.116127077E2,5.566318333E-2,-7.102815509E-1,-3.190172017E-1,7.806217051E-1
2.118130627E2,-2.817438543E-1,2.402309775E-1,-5.081093907E-1,6.287015786E-1
2.120134167E2,8.814353347E-1,3.842000365E-1,8.320935369E-1,1.271580737E0
2.122137717E2,-4.553119838E-1,3.379184008E-1,4.906226099E-1,7.498055705E-1
2.124141268E2,3.359529004E-2,2.949781716E-1,-2.966597676E-1,4.196996342E-1
2.126144817E2,6.344949603E-1,3.268596530E-1,2.363067120E-1,7.518390450E-1
2.128148358E2,-5.675892234E-1,-7.416604757E-1,-3.684489727E-1,1.003978303E0
2.130151907E2,2.294076234E-1,1.152820289E-1,1.591355950E-1,3.020628104E-1
2.132155447E2,-1.370881200E-1,7.121500969E-1,3.913058639E-1,8.240577603E-1
2.134158991E2,-6.442061067E-1,-4.384024739E-1,1.298703402E-1,7.899775581E-1
2.136162531E2,4.864141941E-1,-2.929764614E-2,-6.807209253E-1,8.371607363E-1
2.138166081E2,-5.879710987E-2,6.299328059E-3,-4.490705431E-1,4.529471650E-1
2.140169621E2,8.729473501E-2,1.846069396E-1,-1.832293719E-1,2.743594278E-1
2.142173161E2,5.977894068E-1,1.211078689E-1,4.215928912E-1,7.414579264E-1
2.144176711E2,-8.041023463E-2,2.129726857E-1,5.523014665E-1,5.973776699E-1
2.146180251E2,-9.424942732E-1,5.335453153E-1,-6.697784066E-1,1.273408486E0
2.148183791E2,1.561189592E-1,-5.275129080E-1,-2.516067922E-1,6.049371665E-1
2.150187331E2,-1.998179853E-1,-1.996870041E-1,7.311229408E-2,2.918005044E-1
2.152190881E2,9.102192521E-1,-1.209349260E-1,5.422326922E-1,1.066367965E0
2.154194417E2,1.502633244E-1,6.708834171E-1,6.162124276E-1,9.232450281E-1
2.156197957E2,2.729176283E-1,-3.059265018E-1,-1.466539316E-2,4.102318004E-1
2.158201497E2,7.857099771E-1,5.216894150E-1,-4.031110927E-2,9.439941734E-1
2.160205037E2,-7.099247575E-1,-4.112897515E-1,-5.496183634E-1,9.875387417E-1
2.162208577E2,-2.495786697E-1,9.464334249E-1,6.426718831E-1,1.170919677E0
2.164212120E2,3.269041777E-1,-2.929201126E-1,6.854661107E-1,8.139608852E-1
2.166215660E2,1.193361729E-2,-8.726238012E-1,1.219274923E-1,8.811816062E-1
2.168219200E2,5.299912766E-2,-4.811071232E-2,-4.734798670E-1,4.788598256E-1
2.170222740E2,-2.811424248E-2,-2.700080164E-2,-2.678779364E-1,2.706991738E-1
2.172226280E2,-3.947594464E-1,2.581637502E-1,-2.717888355E-1,5.443828740E-1
2.174229816E2,1.040516019E0,4.082292914E-1,9.529495239E-1,1.468821819E0
2.176233356E2,-3.013374470E-2,1.800239384E-1,4.385079145E-1,4.749798439E-1
2.178236896E2,-4.890386388E-2,2.105862945E-1,-6.838800907E-1,7.172378642E-1
2.180240436E2,7.857856154E-2,-5.598896742E-1,4.854111746E-2,5.674568509E-1
2.182243966E2,-7.898612618E-1,-3.236145079E-1,-6.380518675E-1,1.065700403E0
2.184247500E2,-3.948922828E-2,1.280808747E-1,-3.506100178E-2,1.385401871E-1
2.186251030E2,5.023105741E-1,2.115961015E-1,7.329310775E-1,9.133875340E-1
2.188254570E2,2.216642499E-1,-9.982381463E-1,-6.029726267E-1,1.187093267E0
2.190258100E2,6.639779359E-2,6.094063520E-1,7.095988095E-2,6.171062093E-1
2.192261640E2,-3.611122668E-1,-1.797091663E-1,-4.335460663E-1,5.921652179E-1
2.194265172E2,2.542332113E-1,7.719423175E-1,3.668983579E-1,8.917084009E-1
2.196268712E2,1.702352762E-1,1.036180019E0,5.337489843E-1,1.177937630E0
2.198272242E2,-2.041336894E-1,3.445130214E-2,4.341578484E-1,4.809890775E-1
2.200275782E2,-1.062292218E0,-3.387605548E-1,-1.089841843E0,1.559159617E0
2.202279312E2,-6.433554739E-2,-8.928427473E-3,-6.100159883E-1,6.134641681E-1
2.204282846E2,-2.574295104E-1,-7.716137171E-1,-5.770467520E-1,9.973167176E-1
2.206286376E2,9.110182524E-1,-7.242515683E-1,2.138598710E-1,1.183313414E0
2.208289916E2,-1.147536859E-1,9.389752150E-1,3.691539466E-1,1.015439560E0
2.210293446E2,2.727786601E-1,4.117498398E-1,-2.622601390E-1,5.592195530E-1
2.212296976E2,7.635101676E-1,4.963505268E-1,7.547492385E-1,1.182775564E0
2.214300502E2,-2.584680319E-1,-5.941005349E-1,-4.239656329E-1,7.742790369E-1
2.216304032E2,-3.491865396E-1,-5.844420195E-1,5.585900545E-1,8.806398598E-1
2.218307562E2,2.297117412E-1,-1.466763485E-2,4.189042151E-1,4.779784148E-1
2.220311092E2,2.548485994E-1,-5.148268342E-1,1.600934118E-1,5.963425009E-1
2.222314622E2,5.163032413E-1,1.368765116E0,2.558382750E-1,1.485106125E0
2.224318153E2,-4.407259822E-1,2.297552228E-1,-3.487359285E-1,6.071602767E-1
2.226321683E2,1.692974418E-1,4.680088758E-1,4.584975839E-1,6.766934063E-1
2.228325213E2,4.578812420E-1,2.685890794E-1,7.083240151E-1,8.851656544E-1
2.230328743E2,2.025841773E-1,-2.165007964E-2,7.784872055E-1,8.047057872E-1
2.232332273E2,-1.683117151E0,-3.952789903E-1,-1.302067399E0,2.164372504E0
2.234335798E2,2.228586078E-1,-5.491809249E-1,-3.291175663E-1,6.779262643E-1
2.236339328E2,-8.369560242E-1,-4.976826012E-1,-8.512080312E-1,1.293343910E0
2.238342848E2,1.145265222E0,-1.166636124E-1,3.549906313E-1,1.204683018E0
2.240346378E2,5.916513205E-1,7.117651105E-1,7.745893002E-1,1.206917330E0
2.242349908E2,6.791198999E-2,-5.312957987E-2,-7.562036514E-1,7.611036415E-1
2.244353428E2,4.644386172E-1,-2.531283908E-2,-4.707237240E-3,4.651517248E-1
2.246356958E2,-5.972741842E-1,-2.650388181E-1,-2.331187576E-1,6.937768960E-1
2.248360488E2,-2.462354451E-1,3.026016951E-1,8.154606819E-1,9.039777675E-1
2.250364008E2,5.587167144E-1,-2.527262568E-1,5.985723138E-1,8.569269179E-1
2.252367538E2,-5.159683228E-1,-4.583254158E-1,-7.897493988E-2,6.946384225E-1
2.254371062E2,1.259570479E0,-1.983667612E-1,-2.347125709E-1,1.296517318E0
2.256374592E2,-1.281307220E0,-1.475231528E0,-5.780435354E-2,1.954839533E0
2.258378112E2,3.547972143E-1,-4.510961175E-1,-3.213677406E-1,6.577583106E-1
2.260381632E2,5.023354888E-1,8.323931694E-1,5.306905508E-1,1.107633420E0
2.262385162E2,1.879340112E-1,6.883254647E-1,9.267550707E-1,1.169609379E0
2.264388677E2,-1.362460971E0,2.897123098E-1,-5.854128003E-1,1.510940524E0
2.266392197E2,2.400800437E-1,-3.270169199E-1,-2.811924517E-1,4.936068153E-1
2.268395717E2,-1.832856834E-1,-9.354841113E-1,-4.726834297E-1,1.064027156E0
2.270399247E2,1.532696843E0,-1.152422309E0,-1.423281059E-2,1.917665081E0
2.272402767E2,4.494844675E-1,3.942028061E-2,4.234130085E-1,6.187639459E-1
2.274406290E2,5.308802128E-1,8.629129827E-2,-2.254886739E-2,5.383200163E-1
2.276409810E2,-1.367827654E-1,5.803558230E-1,2.523633540E-1,6.474640289E-1
2.278413330E2,-6.403040290E-1,5.822985992E-2,-2.589427233E-1,6.931315171E-1
2.280416850E2,7.295326144E-2,3.003923297E-1,3.631199300E-1,4.768792443E-1
2.282420370E2,-6.289069355E-2,-1.381398290E-1,3.445957899E-1,3.765423085E-1
2.284423895E2,2.399574071E-1,-3.596524894E-1,1.899140477E-1,4.722253868E-1
2.286427415E2,-6.451058388E-1,8.396071941E-2,-8.560324907E-1,1.075175600E0
2.288430935E2,-3.959396854E-2,-9.020408988E-2,-2.219822407E-1,2.428591677E-1
2.290434445E2,4.142767787E-1,-4.882714748E-1,-2.417425662E-1,6.844514233E-1
2.292437965E2,6.954261065E-1,6.180506945E-1,5.356591940E-1,1.073561783E0
2.294441482E2,1.364574730E-1,5.747197866E-1,7.445944548E-1,9.504443051E-1
2.296445002E2,1.368377686E0,8.657005429E-1,-3.697330952E-1,1.660902611E0
2.298448512E2,-8.519873023E-1,-9.240353853E-2,-2.060257792E-1,8.814008163E-1
2.300452032E2,2.704255581E-1,-5.302554369E-1,4.332414269E-2,5.968063272E-1
2.302455552E2,-9.281632304E-1,1.094377264E-1,2.471123934E-1,9.667099530E-1
2.304459065E2,-1.415548325E0,8.295092583E-1,8.399229646E-1,1.843185627E0
2.306462585E2,-2.822417319E-1,-6.811771989E-1,-8.439195752E-1,1.120652944E0
2.308466095E2,8.032639623E-1,8.696575165E-1,3.778730929E-1,1.242708841E0
2.310469615E2,-5.218137503E-1,1.874549389E-1,-4.614101052E-1,7.213378053E-1
2.312473125E2,2.291841954E-1,1.826935261E-1,3.961229324E-2,2.957557332E-1
2.314476646E2,3.841634393E-1,3.441700935E-1,7.614507079E-1,9.196965706E-1
2.316480156E2,-2.387931198E-1,6.758813858E-1,7.330485582E-1,1.025279469E0
2.318483666E2,-1.295943379E0,-4.110572934E-1,-1.156567454E0,1.784960957E0
2.320487186E2,1.272342205E-1,-5.121812224E-1,-6.960982084E-1,8.735392763E-1
2.322490696E2,-4.773845375E-1,-1.405559629E-1,-7.025851011E-1,8.609749123E-1
2.324494201E2,1.424108982E0,-1.446879029E0,5.052098632E-1,2.092076080E0
2.326497711E2,3.826102912E-1,3.380529284E-1,8.609245420E-1,1.000930309E0
2.328501221E2,-1.286962181E-1,3.042569160E-1,-4.800840616E-1,5.827655564E-1
2.330504741E2,5.251123905E-1,-3.904589713E-1,1.341831684E-1,6.679867915E-1
2.332508251E2,-2.723865509E-1,-7.711293101E-1,-5.547312498E-1,9.882113163E-1
2.334511762E2,-2.147881091E-1,6.796407104E-1,9.821444750E-1,1.213529232E0
2.336515272E2,6.991973519E-1,4.301382303E-1,6.505146027E-1,1.047408747E0
2.338518782E2,-3.362992108E-1,-7.055602074E-1,4.912210107E-1,9.231524504E-1
2.340522292E2,4.614073634E-1,6.861256957E-1,-4.023878276E-1,9.195548864E-1
2.342525802E2,9.936179966E-3,4.672200382E-1,-7.861382514E-2,4.738917864E-1
2.344529304E2,-2.111182213E-1,5.830410123E-1,-5.298740268E-1,8.156434329E-1
2.346532814E2,2.198404968E-1,3.647363782E-1,5.209109187E-1,6.728377626E-1
2.348536324E2,1.034406349E-1,5.522618294E-1,6.669794917E-1,8.720978933E-1
2.350539834E2,-1.285895348E0,7.661581635E-1,-8.273569345E-1,1.710276198E0
2.352543344E2,8.851400018E-2,-2.893811762E-1,-9.949453473E-1,1.039948286E0
2.354546840E2,3.941460550E-1,-9.919790179E-2,-4.607565999E-1,6.144005052E-1
2.356550350E2,2.077606767E-1,-9.031282067E-1,1.959740072E-1,9.472121558E-1
2.358553860E2,3.827137351E-1,1.070157647E0,8.823816180E-1,1.438855279E0
2.360557360E2,9.134492278E-1,-5.827160478E-1,-5.434921384E-1,1.212159721E0
2.362560870E2,-4.237273335E-1,2.998882532E-1,8.693424612E-2,5.263415058E-1
2.364564372E2,-6.497159004E-1,-9.552272558E-1,-9.757007360E-1,1.512144764E0
2.366567882E2,5.838100333E-3,1.042691767E-1,1.015049338E0,1.020407421E0
2.368571382E2,9.187687039E-1,1.823885739E-1,7.664364576E-1,1.210300114E0
2.370574892E2,2.294228598E-2,-9.493605494E-1,-8.839334548E-2,9.537427247E-1
2.372578392E2,-1.905060858E-1,6.387941837E-1,-4.330371320E-1,7.949036014E-1
2.374581891E2,-5.331843346E-2,2.191845775E-1,-3.996148705E-1,4.588864556E-1
2.376585401E2,-1.568268389E-1,4.213375598E-2,-2.083304524E-1,2.641429314E-1
2.378588901E2,2.836522758E-1,4.371088147E-1,6.157118678E-1,8.066125672E-1
2.380592401E2,-1.469568163E-2,3.961611390E-1,7.933042049E-1,8.868433755E-1
2.382595901E2,-2.300909907E-1,5.494594574E-1,-3.386048377E-1,6.852012809E-1
2.384599401E2,-2.684639990E-1,1.047357246E-1,-3.089972213E-2,2.898228487E-1
2.386602911E2,1.701491475E-1,-8.805695176E-1,-6.359313726E-1,1.099437183E0
2.388606411E2,5.058422089E-1,-4.900594652E-1,-1.708093435E-1,7.247140481E-1
2.390609911E2,3.709033430E-1,-5.344844609E-2,2.962904274E-1,4.777175354E-1
2.392613411E2,1.533885717E0,-1.136102557E0,-8.571023345E-1,2.092405034E0
2.394616909E2,-3.757125437E-1,7.942680120E-1,4.107079208E-1,9.698982352E-1
2.396620409E2,-4.625891447E-1,-3.574899733E-1,-1.189065456E0,1.325014889E0
2.398623899E2,2.823914587E-1,5.808781385E-1,1.244045496E0,1.401718069E0
2.400627399E2,1.713211238E-1,-5.154120326E-1,7.156911492E-1,8.984510626E-1
2.402630899E2,1.341018528E-1,1.469073445E-1,2.807756066E-1,3.440930340E-1
2.404634403E2,-2.776618600E-1,-2.323119044E-1,-7.046937346E-1,7.922488177E-1
2.406637903E2,5.233812928E-1,-6.317148805E-1,-1.734873354E-1,8.385043372E-1
2.408641393E2,9.729697108E-1,-4.637271762E-1,-5.654622316E-1,1.217152615E0
2.410644893E2,-2.527060509E-1,3.502300680E-1,3.409626782E-1,5.502517575E-1
2.412648393E2,-6.910918653E-2,7.251514792E-1,2.466294765E-1,7.690558148E-1
2.414651878E2,-5.039503574E-1,1.085960269E-1,-4.080924988E-1,6.574941425E-1
2.416655378E2,1.558109969E-1,-7.726284266E-1,-3.158519566E-1,8.491137796E-1
2.418658878E2,-4.760666192E-1,-3.920476735E-1,-5.041262507E-1,7.965450903E-1
2.420662368E2,5.225849152E-1,-6.997218132E-1,5.184202194E-1,1.015610719E0
2.422665875E2,-1.002839729E-1,4.736189842E-1,2.419995964E-1,5.412352742E-1
2.424669365E2,1.224813089E-1,-1.299894810E0,-6.597496271E-1,1.462873117E0
2.426672865E2,6.382972598E-1,2.555235624E-1,4.778187573E-1,8.372732216E-1
2.428676355E2,-2.135121524E-1,-9.334032983E-2,-4.272487164E-1,4.866634587E-1
2.430679845E2,-7.032587528E-1,5.329615474E-1,4.261333942E-1,9.799033392E-1
2.432683343E2,3.527586162E-1,-3.536668420E-1,7.901021838E-1,9.347621822E-1
2.434686833E2,3.258241415E-1,-4.327761531E-1,-4.288791493E-2,5.434113940E-1
2.436690323E2,5.282678083E-2,-9.191245586E-2,-2.455255985E-1,2.674348292E-1
2.438693813E2,-1.384627223E-1,-3.295787424E-2,-2.611187398E-1,2.973905567E-1
2.440697313E2,1.861065179E-1,4.362281263E-1,4.969436675E-2,4.768649120E-1
2.442700799E2,-1.273732632E-1,-2.252855524E-2,9.525776505E-1,9.613197513E-1
2.444704289E2,3.234149190E-3,7.200412452E-2,2.663023472E-1,2.758840223E-1
2.446707779E2,3.239174560E-2,-5.941810012E-1,-4.449517429E-1,7.430224363E-1
2.448711269E2,-1.097586006E-1,4.926298931E-2,-2.961878479E-1,3.196889641E-1
2.450714759E2,-7.662534118E-1,8.149086237E-1,-7.401822209E-1,1.341301635E0
2.452718250E2,7.904468179E-1,2.191690058E-1,5.208078027E-1,9.716388178E-1
2.454721740E2,1.315993518E-1,1.330144852E-1,4.436358213E-1,4.814810325E-1
2.456725230E2,6.951588392E-1,9.980637431E-1,7.016448677E-2,1.218318555E0
2.458728720E2,-4.872959852E-1,-4.205288738E-2,-2.319584042E-1,5.413229386E-1
2.460732210E2,-2.934543788E-1,-5.214874148E-1,-6.566534638E-1,8.884021431E-1
2.462735701E2,-6.857461333E-1,-7.614051700E-1,3.421554714E-2,1.025259136E0
2.464739191E2,2.530989051E-1,3.696760237E-1,7.377064228E-1,8.630933811E-1
2.466742671E2,1.425122768E-1,-6.976447105E-1,-3.868497014E-1,8.103521350E-1
2.468746161E2,6.782602072E-1,-2.656165361E-1,-1.335954070E-1,7.405651799E-1
2.470749651E2,-3.596735895E-1,-1.327608228E-1,-2.972643077E-1,4.851356467E-1
2.472753142E2,1.197849065E-1,2.976806760E-1,1.624841243E-1,3.596710988E-1
2.474756622E2,1.870994866E-1,1.529749632E-1,2.538576424E-1,3.505014406E-1
2.476760112E2,1.629182994E-1,2.004945874E-1,7.591854930E-1,8.019370703E-1
2.478763592E2,-5.861936212E-1,3.479048014E-1,-8.200957775E-1,1.066404143E0
2.480767082E2,-3.745084107E-1,-4.468623102E-1,-4.237326682E-1,7.207578290E-1
2.482770558E2,-6.181961894E-1,-6.284106374E-1,-5.377234221E-1,1.032575874E0
2.484774047E2,5.976385474E-1,1.943603456E-1,6.763420105E-1,9.232476875E-1
2.486777527E2,1.821005195E-1,5.342399478E-1,2.977071404E-1,6.381241748E-1
2.488781018E2,-1.129219532E-1,4.537876248E-1,-2.501570284E-1,5.303330226E-1
2.490784498E2,-4.376288038E-3,-1.142948270E-1,-3.997103572E-1,4.157533271E-1
2.492787990E2,3.501732349E-1,-1.341166735E0,-1.133095399E-1,1.390751076E0
2.494791470E2,-7.503170967E-1,4.773279727E-1,2.712029815E-1,9.297143627E-1
2.496794950E2,-1.608927250E-1,1.997749060E-1,5.578486919E-1,6.139964537E-1
2.498798430E2,-1.551984400E-1,-1.428967118E0,-1.331818253E-1,1.443527270E0
2.500801920E2,1.217292190E0,7.609993815E-1,6.468912363E-1,1.574607445E0
2.502805406E2,-6.745204329E-2,5.222779512E-1,-1.762384176E-1,5.553233440E-1
2.504808886E2,1.562915742E-1,6.111247465E-2,-1.126599684E-1,2.021238710E-1
2.506812366E2,8.603545278E-2,3.583694100E-1,4.478081465E-1,5.799679898E-1
2.508815846E2,4.535113871E-1,3.006078601E-1,6.315767765E-1,8.336227495E-1
2.510819326E2,-1.629245877E0,-9.906308353E-2,-8.426324129E-1,1.836922700E0
2.512822801E2,1.904267669E-1,-1.508915126E-1,-5.015491247E-1,5.572989562E-1
2.514826281E2,-6.671157479E-1,-1.005623698E0,-6.560803652E-1,1.373595242E0
2.516829761E2,6.935773492E-1,2.628452480E-1,4.648106396E-1,8.753205666E-1
2.518833241E2,3.213407397E-1,5.792346597E-1,6.770288348E-1,9.471751185E-1
2.520836721E2,3.458040655E-1,-1.905728877E-1,-5.792972445E-1,7.010590380E-1
2.522840205E2,3.289665580E-1,-3.048291802E-1,-1.663414836E-1,4.783401662E-1
2.524843685E2,-5.681175590E-1,-4.597635269E-1,-3.720162213E-1,8.200830021E-1
2.526847165E2,-2.059051841E-1,3.450193405E-1,1.084666967E0,1.156692578E0
2.528850645E2,-1.201951355E-1,-1.130782142E-1,6.987886429E-1,7.180105296E-1
2.530854115E2,-1.786012650E-1,-1.302619278E-1,-1.395215653E-2,2.214977299E-1
2.532857594E2,4.996175691E-2,1.562385410E-1,-4.392437339E-1,4.688728150E-1
2.534861074E2,-3.118301630E-1,-3.201896548E-1,-3.484323323E-1,5.667138218E-1
2.536864554E2,8.369334936E-1,1.571127474E-1,2.454346269E-1,8.862168156E-1
2.538868024E2,-3.843559325E-1,4.214185774E-1,2.970341146E-1,6.430803725E-1
2.540871504E2,-2.814145759E-2,1.672291458E-1,2.757323980E-1,3.237064784E-1
2.542874967E2,-3.630407751E-1,-4.760035574E-1,-3.147027791E-1,6.763252400E-1
2.544878447E2,-1.386951208E-1,-1.104975641E-1,-4.513080418E-1,4.848968930E-1
2.546881927E2,-7.610965371E-1,-7.026469707E-1,-4.084363878E-1,1.113463510E0
2.548885397E2,-1.796399802E-1,-4.680931568E-1,-1.047933817E0,1.161700052E0
2.550888877E2,6.221593022E-1,-1.311563849E-1,8.095976114E-1,1.029433090E0
2.552892357E2,-4.672252536E-1,-1.251660228E0,-8.708635569E-1,1.594790299E0
2.554895827E2,7.926225066E-1,1.325318098E0,7.619048357E-1,1.721980684E0
2.556899307E2,-5.463939309E-1,-3.778352868E-3,-4.952463508E-1,7.374479993E-1
2.558902777E2,7.393065095E-1,3.729602993E-1,6.921554208E-1,1.079237058E0
2.560906247E2,4.764113575E-3,7.009448409E-1,1.180210114E-1,7.108272124E-1
2.562909724E2,6.379130483E-1,-2.723206282E-1,5.139361024E-1,8.632623582E-1
2.564913194E2,-3.508611917E-1,-7.827806473E-1,-8.488218784E-1,1.206792318E0
2.566916664E2,9.516148269E-2,1.168659925E-1,-6.725478172E-1,6.892270558E-1
2.568920134E2,-7.118716836E-1,-5.150799155E-1,-1.375590563E-1,8.893768084E-1
2.570923614E2,2.969850302E-1,3.801863194E-1,6.464501619E-1,8.066223140E-1
2.572927083E2,1.407546103E-1,5.347750783E-1,4.378547370E-1,7.053460253E-1
2.574930553E2,8.137868643E-1,4.157052636E-1,4.048024416E-1,9.994623272E-1
2.576934023E2,-3.923469484E-1,-3.169157356E-2,-2.388878167E-1,4.604431264E-1
2.578937493E2,8.928974867E-1,-1.188785553E0,6.536447257E-2,1.488203456E0
2.580940962E2,1.976334900E-1,-6.082881093E-1,1.073148027E-1,6.485290180E-1
2.582944435E2,-2.657930851E-1,5.836748481E-1,2.960630059E-1,7.063820467E-1
2.584947905E2,3.044188917E-1,-4.969225526E-1,1.426595896E-1,5.999622016E-1
2.586951375E2,7.724101543E-1,9.381396174E-1,5.036112294E-2,1.216248178E0
2.588954845E2,-4.136030674E-1,-3.950638175E-1,-3.940546811E-1,6.945660580E-1
2.590958315E2,6.972364783E-1,9.748188257E-1,3.495065272E-1,1.248425113E0
2.592961780E2,-9.620641917E-2,4.003089964E-1,4.059724212E-1,5.782011540E-1
2.594965240E2,-4.339200854E-1,-2.057919949E-1,-2.609452903E-1,5.465614606E-1
2.596968710E2,-2.087806016E-1,-2.912501991E-1,-1.759570241E-1,3.992203557E-1
2.598972180E2,-3.458262980E-1,5.490102172E-1,-1.411297731E-2,6.490047944E-1
2.600975650E2,4.490146637E-1,4.962043762E-1,5.845922977E-2,6.717517642E-1
2.602979111E2,3.155998588E-1,5.640137196E-1,2.959833741E-1,7.108592719E-1
2.604982581E2,-2.086193711E-1,2.814182043E-1,6.653057933E-1,7.518976302E-1
2.606986051E2,-1.298757553E0,1.071717143E0,-1.729721665E0,2.413977186E0
2.608989511E2,2.456977069E-1,-1.087514639E0,1.988173127E-1,1.132512153E0
2.610992981E2,-6.499607563E-1,2.434034348E-1,-4.480765462E-1,8.261154932E-1
2.612996453E2,8.852409124E-1,-2.127418816E-1,-2.751715779E-1,9.511203807E-1
2.614999913E2,-2.349279672E-1,6.704763174E-1,7.863392234E-1,1.059744788E0
2.617003383E2,3.014873564E-1,1.291522384E-1,1.279508322E-1,3.520601401E-1
2.619006843E2,-4.547928572E-1,2.219517082E-1,-8.614220656E-3,5.061356622E-1
2.621010313E2,1.358413547E-1,-8.322126865E-1,2.218686938E-1,8.719269159E-1
2.623013770E2,-8.496226072E-1,6.638720036E-1,1.508801430E-1,1.088737539E0
2.625017240E2,-5.439562201E-1,5.567265749E-1,1.306560785E-1,7.892425859E-1
2.627020700E2,2.271286026E-2,-9.812061191E-1,-1.736834645E-1,9.967182490E-1
2.629024160E2,-1.931539923E-2,9.865365624E-1,-2.286852449E-1,1.012879270E0
2.631027630E2,-2.303647697E-1,1.104784310E-1,-3.230071068E-1,4.118337066E-1
2.633031094E2,5.244336724E-1,2.937253416E-1,6.179059744E-1,8.620400491E-1
2.635034554E2,-1.862131059E-1,5.771029368E-2,3.905596733E-1,4.365119211E-1
2.637038014E2,4.080394208E-1,-9.511963129E-1,-1.828849912E-1,1.051055429E0
2.639041484E2,9.997177124E-2,-1.924884915E-1,-6.293347478E-1,6.656638785E-1
2.641044944E2,-4.093352556E-1,-1.533941459E-2,-3.336211443E-1,5.282932113E-1
2.643048408E2,-9.190467000E-1,1.017513037E0,-2.347717285E-1,1.391077777E0
2.645051868E2,3.855371475E-1,8.600956798E-1,2.746269405E-1,9.817450926E-1
2.647055328E2,-3.719380870E-2,-2.084350400E-2,-1.184805017E-2,4.425163678E-2
2.649058788E2,-1.162606716E0,7.244574428E-1,-7.154067159E-1,1.545412480E0
2.651062248E2,-1.701959521E-1,-5.662691593E-1,-4.359850660E-2,5.928981807E-1
2.653065707E2,-4.019318819E-1,-6.275771260E-1,-5.515277758E-2,7.472911853E-1
2.655069167E2,-1.251734979E-2,-5.907480046E-2,2.611978650E-1,2.680873753E-1
2.657072617E2,-1.846695542E-1,1.168710709E0,2.252652198E-1,1.204463359E0
2.659076077E2,-2.290634960E-1,-1.448946595E-1,-1.388820887E0,1.415022262E0
2.661079537E2,-9.733304977E-1,1.104668260E0,4.958296120E-1,1.553547948E0
2.663083007E2,2.416670024E-1,1.208042949E-1,3.213025164E-3,2.701979668E-1
2.665086467E2,-8.973237276E-1,5.668621659E-1,1.804145426E-1,1.076602059E0
2.667089927E2,-1.709500998E-1,5.057957172E-1,2.079239488E-1,5.729621390E-1
2.669093387E2,3.018001914E-1,-8.404818773E-1,3.273135126E-1,9.511189606E-1
2.671096837E2,1.028974652E0,2.730759792E-2,-2.583933771E-1,1.061273611E0
2.673100292E2,-3.113609850E-1,4.156281650E-1,-2.219548821E-1,5.647622546E-1
2.675103752E2,1.029608026E-1,3.401091397E-1,-1.189837083E-1,3.747429474E-1
2.677107212E2,-2.394367903E-1,2.314990461E-1,4.621838629E-1,5.696803560E-1
2.679110662E2,3.563037217E-1,-2.707666159E-1,3.969046175E-1,5.981640057E-1
2.681114122E2,-8.798265457E-1,6.306084991E-1,-1.085396647E0,1.532921300E0
2.683117570E2,-3.601511419E-1,2.694396377E-1,-4.389801919E-1,6.284983471E-1
2.685121030E2,2.956568003E-1,-9.196515083E-1,-2.371680737E-1,9.946962026E-1
2.687124480E2,3.081795871E-1,1.634818912E-1,3.757089376E-1,5.126969792E-1
2.689127940E2,3.653090820E-2,3.199937046E-1,5.048400164E-1,5.988271206E-1
2.691131390E2,2.260111868E-1,6.631932855E-1,-4.181272686E-1,8.159269595E-1
2.693134850E2,-2.127239294E-2,3.292961419E-1,7.109875977E-2,3.375551768E-1
2.695138300E2,-2.001885772E-1,-6.026637554E-1,-2.018113881E-1,6.663384312E-1
2.697141760E2,8.113892674E-1,-4.686971009E-1,-2.503226995E-1,9.698922464E-1
2.699145210E2,-1.218444258E-1,-2.863949835E-1,-1.097996905E-1,3.300365476E-1
2.701148660E2,5.905470848E-1,-1.361639053E-2,6.859429181E-2,5.946733913E-1
2.703152123E2,5.108633637E-1,1.274777204E-1,2.134044021E-1,5.681314852E-1
2.705155573E2,-2.986724973E-1,1.227334589E-1,-2.969565094E-1,4.386934362E-1
2.707159023E2,-1.237053275E-1,-1.684315503E-1,3.688353896E-1,4.239242147E-1
2.709162483E2,-3.578694463E-1,-1.278323233E-1,3.536946476E-1,5.191450155E-1
2.711165933E2,-2.725901604E-1,-1.523545831E-1,3.107241392E-1,4.405301411E-1
2.713169377E2,8.884997368E-1,-1.851948947E-1,-6.244204640E-1,1.101648695E0
2.715172827E2,-1.732348204E-1,-1.347175837E-1,-3.640224934E-1,4.250547094E-1
2.717176277E2,-4.987071082E-2,-1.315470487E-1,-7.337823510E-2,1.586697173E-1
2.719179737E2,-1.412837300E-2,3.457145095E-1,3.541439176E-1,4.951121563E-1
2.721183187E2,-4.760525376E-2,2.269442677E-1,3.642801046E-1,4.318216709E-1
2.723186641E2,-4.573831856E-1,-4.969831184E-2,-3.766216636E-1,5.945697421E-1
2.725190091E2,-3.679999709E-1,1.520263851E-1,-1.621451378E-1,4.299151615E-1
2.727193541E2,-7.551084459E-2,-3.222328424E-1,-4.354492575E-2,3.338143990E-1
2.729196991E2,1.424579322E-1,5.399709940E-1,-8.847203106E-2,5.654115643E-1
2.731200441E2,-2.180542648E-1,4.938217402E-1,2.684574723E-1,6.028905273E-1
2.733203891E2,8.586969227E-2,-5.822978020E-1,-3.204453588E-1,6.701712932E-1
2.735207341E2,-2.019442916E-1,4.016495347E-1,-9.565449506E-2,4.596233546E-1
2.737210791E2,7.064525038E-2,-3.050622046E-1,-1.623100936E-1,3.527013844E-1
2.739214241E2,-3.168510199E-1,1.730243713E-1,1.768230796E-1,4.019930389E-1
2.741217691E2,-4.815100878E-2,-8.072883487E-1,1.076909341E-2,8.087947644E-1
2.743221137E2,-1.129447296E-1,-2.635366023E-1,8.023145050E-2,2.977333343E-1
2.745224587E2,-7.039890159E-3,-7.376586199E-1,-4.305801988E-1,8.541598838E-1
2.747228037E2,-3.661541641E-1,1.276932359E-1,-4.707906842E-1,6.099330313E-1
2.749231487E2,2.456140369E-1,-4.599695206E-1,1.408658326E-1,5.401309080E-1
2.751234937E2,7.956709713E-2,8.700838685E-1,4.061367214E-1,9.634956656E-1
2.753238385E2,1.742845476E-1,2.057842165E-1,3.546465635E-1,4.455293843E-1
2.755241825E2,-6.835607886E-1,5.119262338E-1,-3.589537442E-1,9.263755238E-1
2.757245275E2,2.671019435E-1,-7.507062554E-1,3.563034115E-4,7.968082938E-1
2.759248725E2,-1.495918185E-1,-1.307404786E-1,-2.238895595E-1,2.993281139E-1
2.761252165E2,2.654693723E-1,-8.865703940E-1,1.288299710E-1,9.343865435E-1
2.763255616E2,-5.089836195E-2,6.943817735E-1,2.549855709E-1,7.414676877E-1
2.765259056E2,-6.725551486E-1,-1.081146121E0,-1.808188558E-1,1.286041532E0
2.767262506E2,3.958704472E-1,8.481322527E-1,2.468727529E-1,9.679813454E-1
2.769265956E2,-2.768361568E-1,-1.863486916E-1,-4.775017500E-1,5.825564469E-1
2.771269396E2,-1.012040019E0,1.088021874E0,5.546330810E-1,1.586075173E0
2.773272843E2,2.188618332E-1,3.290922567E-2,3.638998568E-1,4.259185661E-1
2.775276283E2,3.612473980E-2,4.707789049E-3,3.748349249E-1,3.766010901E-1
2.777279733E2,-5.300757289E-2,-4.756016731E-1,-6.626899242E-1,8.174134143E-1
2.779283173E2,1.973218657E-2,1.685318798E-1,-3.943690658E-1,4.293242524E-1
2.781286623E2,-3.113347888E-1,2.521350682E-1,4.542752355E-2,4.031936299E-1
2.783290063E2,6.862195730E-1,2.810848653E-1,8.893639445E-1,1.157961238E0
2.785293503E2,1.594977826E-1,5.271130800E-1,2.344153821E-1,5.985301272E-1
2.787296953E2,-1.709444642E0,4.856877029E-1,-1.034201026E0,2.056128715E0
2.789300393E2,-6.608276367E-1,-6.203263998E-1,-3.846345544E-1,9.846023300E-1
2.791303833E2,1.214393526E-1,5.907806754E-2,4.928581044E-2,1.437596103E-1
2.793307274E2,1.076428056E0,-6.629576087E-1,4.344360828E-1,1.336766569E0
2.795310724E2,-1.283135861E-1,6.116777658E-1,1.275604814E-1,6.378759613E-1
2.797314164E2,-5.721081048E-2,3.581483662E-1,-1.588495374E-1,3.959501289E-1
2.799317604E2,4.760629535E-1,-2.555882335E-1,1.845189035E-1,5.709715461E-1
2.801321044E2,-2.899349928E-1,-5.848501343E-3,-7.132074982E-2,2.986354875E-1
2.803324480E2,-5.022033453E-1,-3.271196187E-1,2.486440837E-1,6.488754313E-1
2.805327930E2,-3.588083982E-1,1.263931841E-1,1.090423614E-1,3.957384745E-1
2.807331370E2,-1.731009632E-1,-3.375749588E-1,6.976862997E-2,3.857310695E-1
2.809334810E2,-6.195378900E-1,2.969502471E-2,-5.862714052E-1,8.534770953E-1
2.811338250E2,-3.605461121E-1,-7.698940635E-1,-5.400650501E-1,1.007174576E0
2.813341688E2,2.853790522E-1,2.743600607E-1,-1.237816550E-2,3.960654811E-1
2.815345127E2,1.757218242E-1,4.335890114E-1,6.435033083E-1,7.955966931E-1
2.817348567E2,-4.093562961E-1,6.409434974E-2,1.990776509E-1,4.596874741E-1
2.819352007E2,-3.849141896E-1,-4.322430193E-1,-1.222190142E0,1.352309766E0
2.821355447E2,-5.692178607E-1,4.999223650E-1,2.777816653E-1,8.069039580E-1
2.823358891E2,-1.170707583E0,9.206655622E-2,-9.937374294E-2,1.178519256E0
2.825362331E2,1.091168642E0,-1.996626854E-1,1.114403248E0,1.572389517E0
2.827365771E2,7.656367421E-1,-6.148418784E-1,2.282574028E-1,1.008132728E0
2.829369201E2,-1.047022864E-1,3.879555166E-1,-4.482042789E-1,6.019627292E-1
2.831372641E2,-4.589914680E-1,-4.676977098E-1,-1.736349016E-1,6.779110520E-1
2.833376082E2,8.341415972E-2,-6.750880480E-1,1.369768977E-1,6.938764048E-1
2.835379522E2,4.636178613E-1,-3.618096411E-1,2.976521850E-1,6.591240861E-1
2.837382962E2,6.908155233E-2,7.698935270E-1,-5.133839324E-2,7.746895730E-1
2.839386392E2,-1.813323200E-1,-8.825403452E-1,-1.987513900E-1,9.226380581E-1
2.841389832E2,5.075038075E-1,9.401173592E-1,2.641959786E-1,1.100536360E0
2.843393270E2,-2.706785128E-2,-9.799950570E-2,3.791873110E-3,1.017396186E-1
2.845396700E2,-5.345255136E-1,6.540210843E-1,2.192260325E-1,8.726517958E-1
2.847400140E2,1.261317823E-2,-4.771918952E-1,3.674137890E-1,6.023820130E-1
2.849403580E2,1.528890282E-1,-3.519835472E-1,4.150663912E-1,5.652853983E-1
2.851407010E2,4.492506087E-1,4.425097704E-1,-4.498040974E-1,7.745739037E-1
2.853410449E2,4.125037491E-1,1.715199053E-1,-3.968960047E-1,5.975825127E-1
2.855413879E2,3.354267180E-1,3.088915646E-1,2.048097253E-1,4.998720890E-1
2.857417319E2,-2.985482514E-1,1.855761185E-2,1.794300526E-1,3.488131121E-1
2.859420749E2,3.062608242E-1,3.721213341E-1,5.153871775E-1,7.056159879E-1
2.861424189E2,4.451685250E-1,-1.087921739E0,-7.886052728E-1,1.415502385E0
2.863427621E2,-2.582480907E-1,-4.035009742E-1,-4.473062754E-1,6.554296427E-1
2.865431061E2,8.530573547E-2,3.678440452E-1,-7.703845948E-2,3.853845278E-1
2.867434491E2,8.115246892E-2,1.006790996E0,6.169163585E-1,1.183553812E0
2.869437931E2,7.557004690E-2,4.487459064E-1,3.592556417E-1,5.797830082E-1
2.871441361E2,-9.539669752E-1,1.082942784E-1,-2.174628526E-1,9.844139032E-1
2.873444790E2,-3.869355321E-1,-1.642324924E-1,-4.717034698E-1,6.318192629E-1
2.875448230E2,-3.308434784E-2,-5.729404092E-1,-3.129298389E-1,6.536668652E-1
2.877451660E2,6.420738697E-1,-5.251216888E-1,3.204894960E-1,8.892272821E-1
2.879455090E2,1.865543723E-1,5.066921115E-1,3.132516444E-1,6.242323465E-1
2.881458530E2,3.570395112E-1,4.827692807E-1,-4.780062139E-1,7.674850692E-1
2.883461960E2,2.406459898E-1,3.421868086E-1,4.034970105E-1,5.812160888E-1
2.885465390E2,-5.224937201E-2,-3.661971390E-1,2.479484119E-2,3.707359244E-1
2.887468820E2,-1.275214434E0,1.392719746E-1,1.951804459E-1,1.297560766E0
2.889472250E2,5.583453774E-1,-2.779881358E-1,1.245106533E-1,6.360266244E-1
2.891475690E2,1.196031049E-1,-4.678110182E-1,2.655833662E-1,5.510776496E-1
2.893479126E2,8.454009658E-4,3.604953289E-1,-4.002563059E-1,5.386675295E-1
2.895482556E2,-1.275388300E-1,3.452530205E-1,-3.291434944E-1,4.937623327E-1
2.897485986E2,2.385293692E-1,7.853574753E-1,2.598790228E-1,8.609411887E-1
2.899489416E2,5.402660370E-1,1.819907874E-1,4.736297727E-1,7.411701552E-1
2.901492846E2,-4.243428111E-1,6.635284424E-1,5.522482991E-1,9.619329494E-1
2.903496273E2,-8.600050807E-1,-5.932189152E-2,-7.897217870E-1,1.169097227E0
2.905499703E2,-2.935028374E-1,-1.069389135E-1,-2.073329091E-1,3.749223679E-1
2.907503133E2,-1.320010722E-1,-2.998352945E-1,-3.959486485E-1,5.139074032E-1
2.909506563E2,8.015379906E-1,-3.268221319E-1,1.939302385E-1,8.870652702E-1
2.911509993E2,-9.789634496E-2,2.514523268E-1,3.899965584E-1,4.742460148E-1
2.913513416E2,6.039839387E-1,-3.197340295E-2,-1.967220604E-1,6.360176615E-1
2.915516836E2,-5.845136642E-1,8.375015855E-1,1.368288696E-1,1.030430623E0
2.917520266E2,4.489239454E-1,-1.103860140E0,2.874981798E-2,1.192001036E0
2.919523696E2,-4.637830853E-1,1.983359605E-1,1.434846520E-1,5.244232535E-1
2.921527126E2,-5.148240924E-2,3.425504267E-1,2.929716110E-1,4.536778573E-1
2.923530560E2,1.491575599E0,-8.701130748E-1,-1.394927204E-1,1.732441268E0
2.925533980E2,3.881914020E-1,8.018761277E-1,1.035841927E-2,8.909574544E-1
2.927537410E2,3.424940631E-2,-4.595738053E-1,-5.371265411E-1,7.077330186E-1
2.929540840E2,-3.011406064E-1,9.979107380E-1,1.544568837E-1,1.053740212E0
2.931544260E2,4.959233403E-1,1.161665797E0,6.737887263E-1,1.431572084E0
2.933547688E2,4.877215922E-1,9.170609117E-1,5.164512992E-1,1.159997850E0
2.935551118E2,-3.343423903E-1,-9.519579411E-1,-6.677076817E-1,1.209893509E0
2.937554538E2,-2.556860149E-1,-1.488678455E-1,-3.064197898E-1,4.259460778E-1
2.939557968E2,4.711960852E-1,1.775469035E-1,2.635869682E-1,5.683544171E-1
2.941561398E2,2.413615882E-1,6.993001699E-1,6.818844676E-1,1.006102664E0
2.943564820E2,6.094571948E-1,-3.391741812E-1,8.291755319E-1,1.083517079E0
2.945568250E2,-9.520218968E-1,-2.425541878E-1,-7.837496996E-1,1.256758456E0
2.947571670E2,-2.414496243E-1,-7.891600728E-1,-4.354824424E-1,9.331219102E-1
2.949575100E2,1.268412173E-1,-5.313909650E-1,-1.172732934E-1,5.587647783E-1
2.951578520E2,6.725192666E-1,-6.918988824E-1,3.166644275E-1,1.015520845E0
2.953581956E2,-2.513800263E-1,2.852677703E-1,3.280129731E-1,5.021574742E-1
2.955585386E2,-1.456234336E0,-4.153172374E-1,-9.260332584E-1,1.775005477E0
2.957588806E2,3.320324421E-1,-6.148530543E-2,-7.297386974E-2,3.454723883E-1
2.959592236E2,-1.771987826E-1,-3.259097934E-1,-4.766454697E-1,6.039929683E-1
2.961595656E2,9.700548053E-1,1.057934016E-2,5.839897394E-1,1.132326041E0
2.963599067E2,2.650053799E-1,6.743625402E-1,6.745132208E-1,9.899296804E-1
2.965602497E2,1.098475754E-1,-7.376052141E-1,2.991535962E-1,8.035053303E-1
2.967605917E2,2.302126288E-1,4.864290059E-1,4.585570469E-2,5.401053396E-1
2.969609337E2,5.151594281E-1,-9.950711131E-1,-1.544544995E-1,1.131110936E0
2.971612757E2,-3.504000306E-1,7.151121497E-1,-1.203795616E-2,7.964361120E-1
2.973616168E2,1.653624177E-1,-5.756097436E-1,3.176123798E-1,6.779003835E-1
2.975619598E2,-1.277374476E-1,2.132563442E-1,1.935978830E-1,3.150797743E-1
2.977623018E2,-6.190005541E-1,-1.058748245E0,-8.922610283E-1,1.516653974E0
2.979626438E2,-6.036895514E-1,6.778424382E-1,-6.333254576E-1,1.106802864E0
2.981629858E2,2.727375031E-1,-2.499809265E-1,9.465186298E-2,3.818837315E-1
2.983633280E2,7.088168859E-1,5.204736590E-1,1.943652630E-1,9.006064973E-1
2.985636700E2,-5.066524148E-1,6.624744534E-1,3.408531249E-1,9.009716553E-1
2.987640120E2,-9.653481096E-2,-1.102770865E-1,-2.581205666E-1,2.968269402E-1
2.989643540E2,3.646673858E-1,1.228520796E-1,-1.848791242E-1,4.269136052E-1
2.991646960E2,-5.151095390E-1,-6.588768959E-1,-4.693944752E-1,9.590556681E-1
2.993650387E2,2.736511230E-1,-5.712262988E-1,1.381596625E-1,6.482842848E-1
2.995653807E2,-1.789411604E-1,3.106974661E-1,3.467494547E-1,4.987865663E-1
2.997657227E2,1.315560937E-1,-9.160390496E-1,-1.354556382E-1,9.352982284E-1
2.999660647E2,2.764934599E-1,3.424156606E-1,-4.863741249E-2,4.427896972E-1
3.001664067E2,-2.465144843E-1,-1.607984751E-1,-2.828979790E-1,4.082362148E-1
3.003667479E2,5.403952003E-1,8.716437221E-2,4.842228889E-1,7.308189970E-1
3.005670889E2,4.753734767E-1,1.924568117E-1,4.575219154E-1,6.872742319E-1
3.007674309E2,3.490121365E-1,5.217840150E-2,4.710361362E-1,5.885635892E-1
3.009677729E2,-7.448400259E-1,1.710773557E-1,-4.298052788E-1,8.768048263E-1
3.011681149E2,-5.286518335E-1,3.614320457E-1,-3.966740966E-1,7.532969027E-1
3.013684571E2,4.076650739E-1,-4.507665932E-1,-3.672706783E-1,7.101190641E-1
3.015687981E2,3.687693775E-1,1.938407570E-1,3.878590465E-1,5.692097441E-1
3.017691401E2,-1.411203891E-1,3.889609277E-1,2.512639165E-1,4.840858635E-1
3.019694821E2,-2.461688519E-1,7.656571269E-2,-2.880630493E-1,3.865769424E-1
3.021698231E2,1.472384781E-1,-3.793030977E-2,-2.461850941E-1,2.893526886E-1
3.023701650E2,-1.418321133E-1,-3.855336607E-1,-3.607904017E-1,5.467378401E-1
3.025705070E2,-6.493404508E-1,-4.002319276E-2,1.490808278E-1,6.674353678E-1
3.027708480E2,3.762349784E-1,-3.772077858E-1,4.798310399E-1,7.169911433E-1
3.029711900E2,5.009298921E-1,-5.791392326E-1,2.485874444E-1,8.050644229E-1
3.031715310E2,3.949512169E-2,2.841870785E-1,-9.359721094E-2,3.017989366E-1
3.033718737E2,1.171571240E-1,3.248960376E-1,-2.021148801E-1,4.001670297E-1
3.035722147E2,1.947790831E-1,7.446142435E-1,-6.693331059E-3,7.696973844E-1
3.037725567E2,6.877962500E-2,3.835926950E-1,2.778394520E-1,4.786112761E-1
3.039728977E2,-4.324646667E-2,3.203388155E-1,2.738278210E-1,4.236376861E-1
3.041732397E2,-1.029365063E0,-1.992067248E-1,-8.018071651E-1,1.319913058E0
3.043735806E2,-4.108655155E-1,-6.017549038E-1,-3.978556693E-1,8.301858645E-1
3.045739216E2,-4.565370977E-1,-4.666295052E-1,-5.775201917E-1,8.716070149E-1
3.047742636E2,6.949239969E-1,6.781320274E-2,4.061214030E-1,8.077453720E-1
3.049746046E2,5.239721760E-2,6.627163850E-3,4.176982641E-1,4.210240225E-1
3.051749456E2,-2.645645440E-1,-1.128891468E0,-2.692900598E-1,1.190339229E0
3.053752875E2,4.031078219E-1,1.258396149E0,2.077298611E-1,1.337612978E0
3.055756285E2,-3.963742554E-1,-4.396310449E-1,-2.322783023E-1,6.358783026E-1
3.057759695E2,3.004645407E-1,8.780912161E-1,3.847709000E-1,1.004674957E0
3.059763105E2,7.355110645E-1,5.190175772E-1,3.879516721E-1,9.802358243E-1
3.061766525E2,-5.639423728E-1,3.463443816E-1,3.322203755E-1,7.405105053E-1
3.063769931E2,-8.008446693E-1,-6.020279527E-1,-5.084743500E-1,1.123537273E0
3.065773341E2,-5.582130551E-1,4.827749431E-1,-5.710089803E-1,9.331263131E-1
3.067776751E2,-5.602831244E-1,-1.259806871E0,-4.577547312E-1,1.452780068E0
3.069780161E2,5.606719851E-1,8.202568889E-1,2.942809463E-1,1.036231496E0
3.071783571E2,3.212971687E-1,6.033788323E-1,3.105799258E-1,7.508380493E-1
3.073786982E2,-6.849286556E-1,5.063153505E-1,-4.130233228E-1,9.466101429E-1
3.075790392E2,6.240565181E-1,1.437288374E-1,-2.239239961E-1,6.784146759E-1
3.077793802E2,-5.475400090E-1,-4.576500952E-1,-4.949660301E-1,8.684670645E-1
3.079797212E2,2.652287185E-1,-5.923634768E-1,3.686982989E-1,7.464443699E-1
3.081800622E2,1.452777088E-1,6.263996959E-1,1.108075157E-1,6.525032545E-1
3.083804036E2,-4.057812393E-1,-1.019991755E0,-1.229232177E-1,1.104604777E0
3.085807446E2,-8.187889308E-2,4.437616765E-1,-2.443270385E-1,5.131513232E-1
3.087810856E2,-1.557378322E-1,-2.450397909E-1,-8.749827743E-1,9.218967549E-1
3.089814266E2,-1.191474795E-1,6.427584887E-1,3.428543210E-1,7.381623683E-1
3.091817676E2,1.282770485E-1,7.355252504E-1,1.252878606E-1,7.570663400E-1
3.093821083E2,3.097547293E-1,-1.378166825E-1,4.112835526E-1,5.330061828E-1
3.095824493E2,-7.469957471E-1,-3.654206395E-1,-9.856209755E-1,1.289567213E0
3.097827893E2,-6.618102789E-1,2.527812421E-1,-4.524930716E-1,8.406195224E-1
3.099831303E2,-3.552634418E-1,-1.823573858E-1,-1.825326532E-1,4.390723160E-1
3.101834713E2,1.092951298E0,-3.561425805E-1,6.943923980E-2,1.151608390E0
3.103838124E2,-2.306659967E-1,8.246407509E-1,1.946048886E-1,8.781288247E-1
3.105841524E2,1.405345351E-1,2.842226624E-1,1.230398715E-1,3.401048182E-1
3.107844934E2,4.416558146E-1,3.584351242E-1,1.876954585E-1,5.989701011E-1
3.109848344E2,-7.082565427E-1,-3.737053275E-1,-3.264238238E-1,8.647748348E-1
3.111851744E2,1.391672529E-3,3.612428010E-1,2.463658005E-1,4.372578251E-1
3.113855150E2,-7.349077612E-2,-2.505945973E-2,-1.350847483E-1,1.558100122E-1
3.115858550E2,-1.474166036E0,1.478496432E0,3.548306227E-1,2.117787046E0
3.117861960E2,3.979179859E-1,-7.016549110E-1,-9.739395976E-1,1.264601391E0
3.119865370E2,-8.041464686E-1,-2.021638602E-1,-6.930471063E-1,1.080664638E0
3.121868770E2,5.448461771E-1,-4.861669540E-1,2.186470628E-1,7.622481236E-1
3.123872181E2,-4.625300169E-1,6.032809615E-1,6.824303865E-1,1.021564079E0
3.125875581E2,1.942832023E-1,2.355190963E-1,9.818977863E-2,3.207123946E-1
3.127878991E2,-7.044820189E-1,2.332984209E-1,-1.208333969E0,1.418024700E0
3.129882391E2,-3.767003492E-2,-7.652012706E-1,-3.736582398E-1,8.523922197E-1
3.131885801E2,-3.500993550E-1,-4.304822683E-1,-3.434132338E-1,6.525466963E-1
3.133889198E2,6.320852637E-1,3.708552420E-1,6.800832748E-1,9.997893037E-1
3.135892607E2,5.368832946E-1,4.126819596E-2,5.242124796E-1,7.514954822E-1
3.137896007E2,-4.171889424E-1,1.320966184E-1,-9.015746117E-1,1.002164114E0
3.139899407E2,2.143218964E-1,1.261937022E-1,1.979342848E-1,3.178627170E-1
3.141902818E2,4.501588345E-1,-4.372729063E-1,-2.736566365E-1,6.846448171E-1
3.143906225E2,-2.240343392E-1,-5.599643588E-1,9.867382646E-1,1.156461790E0
3.145909625E2,4.230935276E-1,4.863094091E-1,5.147964358E-1,8.249365702E-1
3.147913035E2,5.855904818E-1,-1.264765710E-1,1.158440635E-1,6.101904476E-1
3.149916435E2,-1.564576291E-2,-3.390561342E-1,-2.025608346E-2,3.400208243E-1
3.151919835E2,-6.673020869E-2,-7.503377795E-1,3.619120121E-1,8.357272334E-1
3.153923232E2,1.052064374E-1,1.812169403E-1,5.943968892E-1,6.302504548E-1
3.155926642E2,2.311349809E-1,1.149928689E0,1.121262312E0,1.622648619E0
3.157930042E2,7.273761630E-1,3.267408311E-1,-2.002148479E-1,8.221445363E-1
3.159933442E2,-5.742300749E-1,-1.351665705E-1,3.619598150E-1,6.921163836E-1
3.161936842E2,3.921518922E-1,-8.258615732E-1,3.149344027E-1,9.669612829E-1
3.163940242E2,-1.702782214E-1,-5.689918995E-1,3.003160357E-1,6.655345038E-1
3.165943652E2,-4.661491513E-2,7.148324251E-1,4.336735308E-1,8.373954130E-1
3.167947052E2,3.148738742E-1,-9.683653712E-1,1.311995536E-1,1.026689034E0
3.169950452E2,6.164039969E-1,1.756316572E-1,-6.774257123E-2,6.445071159E-1
3.171953852E2,-2.004015148E-1,-6.215440035E-1,-4.444254339E-1,7.899314411E-1
3.173957246E2,-8.573269099E-2,9.652841091E-1,1.606876552E-1,9.823156459E-1
3.175960646E2,8.880013824E-1,-1.932738163E-2,1.147929549E0,1.451434550E0
3.177964046E2,1.452894449E0,-2.240137458E-1,8.770962358E-1,1.711835928E0
3.179967446E2,-1.089125752E0,6.771201491E-1,-5.998591185E-1,1.415809861E0
3.181970846E2,1.083088145E-1,-5.062357187E-1,-3.497917652E-1,6.247877089E-1
3.183974246E2,2.232389301E-1,1.160324812E-1,-2.432589531E-1,3.499629621E-1
3.185977636E2,3.909468949E-1,3.766791821E-1,8.462564945E-1,1.005423660E0
3.187981036E2,-3.523364365E-1,1.019516349E0,1.497079372E0,1.845210340E0
3.189984436E2,-4.959873557E-1,2.920531929E-1,4.594906867E-1,7.364986189E-1
3.191987836E2,-2.721727192E-1,-1.745987833E-1,1.943588704E-1,3.772772120E-1
3.193991247E2,-1.087226510E0,-7.245365381E-1,-9.465297461E-1,1.613360852E0
3.195994647E2,-5.548623800E-1,-1.220301867E0,-9.313565493E-1,1.632309385E0
3.197998038E2,3.761902824E-2,4.527645409E-1,-2.418176681E-1,5.146714538E-1
3.200001438E2,8.940570354E-1,1.661788523E-1,5.230928957E-2,9.108730182E-1
3.202004838E2,-1.108846515E-1,-1.476859599E-1,4.489492625E-2,1.900581572E-1
3.204008220E2,-3.340134919E-1,4.730480313E-1,-7.379379272E-1,9.380254992E-1
