"time","Acceleration x","Acceleration y","Acceleration z","abs Acceleration"
1.765348440E2,1.309626617E0,-7.276368713E-1,1.169293442E1,1.178852377E1
1.767352000E2,3.682342529E-2,1.583706665E0,7.379504242E0,7.547619865E0
1.769355560E2,5.857319641E-1,2.528392181E0,1.071022797E1,1.102020109E1
1.771359110E2,6.945556641E-1,1.197809143E0,6.226152649E0,6.378254551E0
1.773362670E2,5.487588501E-1,1.910776520E0,7.176077271E0,7.446360734E0
1.775366223E2,-1.746867371E-1,2.825374603E0,1.251173172E1,1.282796507E1
1.777369783E2,-1.691482544E-1,4.797523499E-1,6.579567719E0,6.599203347E0
1.779373343E2,1.606010284E0,3.898942108E0,1.271455994E1,1.339556094E1
1.781376893E2,-1.737886047E-1,-9.960287476E-1,1.100915634E1,1.105548728E1
1.783380453E2,1.511856079E-1,1.564845886E0,5.947581940E0,6.151855872E0
1.785383998E2,7.640112305E-1,2.163002014E0,1.258852203E1,1.279582658E1
1.787387548E2,-1.616937561E0,5.740562439E-1,8.729546814E0,8.896573229E0
1.789391108E2,6.122268677E-2,2.896327057E0,4.306394806E0,5.190134378E0
1.791394658E2,1.354084167E0,2.432591400E0,1.456576035E1,1.482944434E1
1.793398218E2,1.982178040E0,5.478607178E-2,8.590336304E0,8.816229869E0
1.795401770E2,9.128018188E-1,2.378254395E0,9.942474518E0,1.026362999E1
1.797405320E2,1.344354401E0,1.287322998E-1,1.337319031E1,1.344120827E1
1.799408880E2,-5.665718079E-1,1.908381500E0,4.521048431E0,4.939919279E0
1.801412430E2,2.215842133E0,2.171085205E0,1.535746399E1,1.566765035E1
1.803415980E2,3.073109436E-1,4.421804810E-1,5.428311768E0,5.454954834E0
1.805419534E2,-8.038284302E-2,2.505639496E0,8.078999634E0,8.459014468E0
1.807423094E2,6.038442993E-1,1.851799164E0,1.074360855E1,1.091874136E1
1.809426644E2,-1.531614990E0,1.029858398E0,7.498506775E0,7.722309023E0
1.811430194E2,-1.514849854E-1,3.046315155E0,9.339378662E0,9.824814376E0
1.813433744E2,3.718716888E0,-2.488275604E0,1.771850418E1,1.827473013E1
1.815437290E2,9.448352051E-1,9.255253601E-1,6.579268341E0,6.710892836E0
1.817440840E2,2.493814087E-1,1.038690033E0,1.400128418E1,1.404197375E1
1.819444390E2,-1.555864563E0,5.225633240E-1,8.498577118E0,8.655610897E0
1.821447940E2,6.845265198E-1,1.991009674E0,4.800816650E0,5.242188149E0
1.823451490E2,1.182690582E0,3.010838928E0,1.651425842E1,1.682809078E1
1.825455042E2,1.482068024E0,1.253044281E0,4.258344727E0,4.679759119E0
1.827458592E2,1.365310822E0,1.912872162E0,1.097966766E1,1.122836834E1
1.829462142E2,-1.674567719E0,2.866838379E0,9.274264069E0,9.850630099E0
1.831465692E2,-9.012757874E-1,1.212029572E0,6.595584412E0,6.766317127E0
1.833469242E2,1.839824066E0,3.469634857E0,1.259959900E1,1.319746997E1
1.835472792E2,3.062780914E0,-3.146756287E0,1.346884140E1,1.416659418E1
1.837476342E2,-1.782792664E-1,1.687740326E0,7.869734802E0,8.050650704E0
1.839479882E2,3.646417236E-1,1.722917175E0,1.414498535E1,1.425419299E1
1.841483432E2,-2.246827698E0,4.149371338E-1,7.372319183E0,7.718257424E0
1.843486982E2,1.696571960E0,2.191742249E0,7.121440887E0,7.641793691E0
1.845490537E2,-8.699908447E-1,2.057321777E0,1.411878983E1,1.429439341E1
1.847494077E2,5.602848816E-1,1.030457153E0,5.921835480E0,6.036878046E0
1.849497627E2,7.333250427E-1,8.017327881E-1,8.642727356E0,8.710756410E0
1.851501177E2,2.247276764E0,-1.733545074E0,1.888817184E1,1.910022165E1
1.853504717E2,-1.298399963E0,1.838626556E0,3.033591614E0,3.777442013E0
1.855508262E2,3.304977264E0,1.842368774E0,1.435963898E1,1.484979559E1
1.857511812E2,-8.897497559E-1,1.875599670E-1,7.347021790E0,7.403077910E0
1.859515352E2,-1.061143341E0,1.968706055E0,6.003415833E0,6.406467855E0
1.861518902E2,-4.041595459E-1,1.460662537E0,1.203961349E1,1.213462703E1
1.863522442E2,-3.662134552E0,2.571652222E-1,8.422385559E0,9.187706021E0
1.865525989E2,1.115480347E0,2.345771942E0,5.158123627E0,5.775221360E0
1.867529529E2,1.344803467E0,2.705473938E0,1.457893295E1,1.488869946E1
1.869533079E2,1.601220245E0,-8.643026733E-1,7.906857605E0,8.113527135E0
1.871536619E2,2.335144043E-2,2.093995514E0,1.259540771E1,1.276830678E1
1.873540159E2,2.374362488E0,-2.607577515E-1,1.359323273E1,1.380150600E1
1.875543712E2,-6.688092041E-1,2.846480713E0,5.750142517E0,6.450883441E0
1.877547252E2,9.867480469E-1,3.078348541E0,1.115974319E1,1.161850978E1
1.879550792E2,-2.902464294E-1,1.298399963E0,7.619155884E0,7.734443861E0
1.881554342E2,-2.516267395E-1,2.680026855E0,6.345753937E0,6.893072826E0
1.883557882E2,-9.026229858E-1,2.401755524E0,1.312994614E1,1.337829000E1
1.885561432E2,-2.340383148E0,1.210981750E0,5.275180206E0,5.896727592E0
1.887564972E2,2.027234344E0,2.320923615E0,1.127171036E1,1.168536777E1
1.889568512E2,2.553390198E0,-2.458337860E0,1.265468445E1,1.314169947E1
1.891572062E2,-2.558180237E-1,6.744973755E-1,6.887327728E0,6.925003452E0
1.893575602E2,1.972597961E0,1.094823303E0,1.262504608E1,1.282503682E1
1.895579142E2,6.092330933E-2,-1.385668488E0,1.111708191E1,1.120327180E1
1.897582692E2,-1.682501221E-1,2.050735474E0,4.571194153E0,5.012947244E0
1.899586232E2,1.059646454E0,2.096390533E0,1.754067398E1,1.769725819E1
1.901589772E2,3.617976379E-1,1.286424866E0,5.599106598E0,5.756368748E0
1.903593322E2,-3.775149536E-1,2.615361328E0,7.395371246E0,7.853289011E0
1.905596858E2,-4.828958130E-1,1.762884064E0,1.140732834E1,1.155283898E1
1.907600398E2,-6.357279968E-1,1.297202454E0,6.196963348E0,6.363115513E0
1.909603948E2,2.985840912E0,2.792742462E0,1.211251190E1,1.278388051E1
1.911607488E2,1.640139313E0,-1.625469818E0,9.929152222E0,1.019412934E1
1.913611028E2,9.141490173E-1,1.582658844E0,6.549929352E0,6.800150877E0
1.915614577E2,-3.079096985E-1,2.658172302E0,1.334010910E1,1.360585165E1
1.917618117E2,-2.536026306E0,-3.552113342E-1,7.616760864E0,8.035710957E0
1.919621657E2,7.484436035E-4,2.764151917E0,6.189329224E0,6.778519943E0
1.921625207E2,1.019380188E-1,1.286873932E0,1.535102737E1,1.540520942E1
1.923628747E2,-8.262817383E-2,6.412664795E-1,6.483168182E0,6.515329600E0
1.925632294E2,-4.505630493E-1,2.337988129E0,1.164204025E1,1.188302557E1
1.927635844E2,3.046165466E-1,-1.405876465E0,1.444570999E1,1.451715596E1
1.929639384E2,-1.152453461E0,2.157613220E0,4.032314758E0,4.716249156E0
1.931642924E2,-2.132166138E0,4.716541901E0,1.242221786E1,1.345746620E1
1.933646474E2,-9.683363342E-1,3.399430847E-1,3.917653198E0,4.049844829E0
1.935650018E2,4.340972900E-3,1.757195892E0,6.536607056E0,6.768676979E0
1.937653558E2,-1.655557251E-1,6.182144165E-1,1.172421936E1,1.174167439E1
1.939657098E2,-1.751358032E-1,7.524851990E-1,5.440586243E0,5.495169259E0
1.941660648E2,3.382216644E0,2.721640320E0,1.171838150E1,1.249668678E1
1.943664188E2,9.804611206E-2,-9.297166443E-1,1.098819992E1,1.102789751E1
1.945667723E2,8.108638000E-1,9.448352051E-1,5.990093536E0,6.118123425E0
1.947671263E2,-1.385668488E0,2.554288330E0,1.418390442E1,1.447852239E1
1.949674803E2,-1.962269440E0,-1.392105103E-2,8.251291351E0,8.481421114E0
1.951678343E2,3.611988831E-1,2.287093964E0,5.491630096E0,5.959804070E0
1.953681893E2,4.144431610E0,2.858156433E0,1.086844894E1,1.197783595E1
1.955685433E2,1.187031555E0,1.049766998E0,6.293213196E0,6.489652301E0
1.957688973E2,-7.634124756E-3,2.070494385E0,9.091643829E0,9.324429891E0
1.959692513E2,2.696043549E0,-5.601351929E-1,1.750115616E1,1.771645758E1
1.961696053E2,-1.378034363E0,1.495390320E0,3.447929993E0,4.002922951E0
1.963699593E2,3.592828674E0,2.434836731E0,1.431907333E1,1.496237645E1
1.965703130E2,3.309617615E-1,-8.869056702E-1,5.284011841E0,5.368139202E0
1.967706670E2,-6.391708374E-1,1.694925385E0,5.361849976E0,5.659571236E0
1.969710200E2,-1.503174133E0,2.258952484E0,1.460452972E1,1.485445008E1
1.971713740E2,-2.007026367E0,-2.270777893E-1,5.831423492E0,6.171322314E0
1.973717280E2,2.696193237E0,2.809208221E0,1.077369598E1,1.145572494E1
1.975720818E2,6.381230164E-1,-1.217717743E0,1.480376541E1,1.486746474E1
1.977724358E2,-2.859054565E-2,1.028511200E0,6.337670746E0,6.420648191E0
1.979727898E2,-1.410217438E0,1.734293518E0,1.431652863E1,1.448997858E1
1.981731438E2,-2.350412292E0,-1.546733551E0,8.064330139E0,8.541091453E0
1.983734968E2,8.276289368E-1,2.183659058E0,6.033503265E0,6.469659820E0
1.985738508E2,2.393522644E-1,1.089284821E0,1.360790222E1,1.365352825E1
1.987742048E2,1.447489929E-1,-6.415658569E-1,8.226293335E0,8.252542702E0
1.989745578E2,4.733157349E-1,2.316133575E0,9.189540253E0,9.488738197E0
1.991749118E2,-4.881349182E-1,-1.680555267E0,1.608629837E1,1.618120938E1
1.993752658E2,-1.199455719E0,9.345066833E-1,4.088148651E0,4.361760672E0
1.995756189E2,4.276007996E0,3.149899750E0,1.366687958E1,1.466252742E1
1.997759729E2,1.451531525E0,-2.773432617E0,1.028556107E1,1.075135520E1
1.999763269E2,1.737886047E-1,1.636247406E0,6.116580505E0,6.334040190E0
2.001766799E2,9.413923645E-1,1.583556976E0,1.551822968E1,1.562719823E1
2.003770339E2,-1.872605896E0,-3.873944092E-1,6.944658508E0,7.203124951E0
2.005773873E2,4.363426208E-1,2.788401489E0,4.457430725E0,5.275819028E0
2.007777413E2,-2.112107849E-1,2.707270203E0,1.683773575E1,1.705530026E1
2.009780953E2,-1.047821045E-3,-4.710704041E-1,6.090834045E0,6.109023473E0
2.011784483E2,4.498146057E-1,2.014810181E0,1.195234497E1,1.212931752E1
2.013788023E2,2.993774414E-4,-3.472778320E-2,1.282982025E1,1.282986726E1
2.015791554E2,2.980302429E-1,1.392554169E0,5.749843140E0,5.923573691E0
2.017795094E2,1.651964722E0,1.435065765E0,1.601025650E1,1.615910624E1
2.019798624E2,8.595126343E-1,-1.525477753E0,6.086642761E0,6.333487542E0
2.021802164E2,5.643264771E-2,2.148781586E0,6.206244049E0,6.567945808E0
2.023805694E2,1.261726227E0,2.023192749E0,1.419363419E1,1.439251588E1
2.025809232E2,-3.244053955E0,1.180744629E0,5.432652740E0,6.436750713E0
2.027812762E2,8.390052795E-1,2.942431183E0,8.310268707E0,8.855642106E0
2.029816292E2,1.781295776E-1,1.577719116E0,1.590502533E1,1.598407828E1
2.031819832E2,3.733087006E0,-1.450932770E0,1.009725266E1,1.086258053E1
2.033823362E2,8.969348145E-1,1.572480011E0,1.202988373E1,1.216533140E1
2.035826897E2,2.423011322E0,-2.661016388E0,1.319865326E1,1.368051315E1
2.037830427E2,1.566492462E0,1.310674438E0,4.861889648E0,5.273493820E0
2.039833957E2,3.135978699E0,8.955876160E-1,1.390638153E1,1.428369304E1
2.041837497E2,-5.331912231E-1,1.985171814E0,4.777315521E0,5.200763752E0
2.043841027E2,7.653584290E-1,2.386636963E0,6.774163055E0,7.222956086E0
2.045844558E2,-2.753224640E0,5.458997955E0,1.021116577E1,1.190163060E1
2.047848088E2,-2.694396973E-2,-8.348139954E-1,6.514752502E0,6.568077386E0
2.049851618E2,2.979104919E0,2.304158478E0,1.143696671E1,1.204111373E1
2.051855158E2,2.077829132E0,-1.621877289E0,1.499117569E1,1.522114347E1
2.053858688E2,1.898052979E-1,1.250798950E0,8.048912201E0,8.147730462E0
2.055862222E2,1.872156830E0,4.724176025E-1,1.533815414E1,1.545920833E1
2.057865752E2,-1.920955353E0,-1.090931396E0,9.530381470E0,9.783065559E0
2.059869282E2,8.008346558E-2,2.534080353E0,3.534150696E0,4.349505459E0
2.061872812E2,-7.638615417E-1,1.063238983E0,1.410471909E1,1.416534723E1
2.063876342E2,2.559976501E0,9.562115479E-1,4.864584045E0,5.579605555E0
2.065879869E2,1.515598297E0,1.032403107E0,9.610764313E0,9.784154795E0
2.067883399E2,-4.224814453E0,8.816665649E-1,1.651141434E1,1.706614182E1
2.069886929E2,2.998265076E-1,-3.062631226E-1,5.760471039E0,5.776393306E0
2.071890449E2,3.189866638E0,2.373614044E0,1.244751526E1,1.306713163E1
2.073893979E2,4.581971741E-1,-2.332599335E0,6.371350708E0,6.800373089E0
2.075897515E2,-1.849254456E0,2.275867310E0,4.637805634E0,5.487126310E0
2.077901045E2,-1.450034637E0,7.542814636E-1,1.732931351E1,1.740622439E1
2.079904565E2,-2.862198029E0,-8.803193665E-1,6.201304321E0,6.886458816E0
2.081908095E2,1.864073639E0,2.731220398E0,5.560935974E0,6.469802493E0
2.083911625E2,-2.670147400E0,-7.476951599E-1,1.655242905E1,1.678307607E1
2.085915141E2,-7.734416199E-1,1.638941803E0,6.959926758E0,7.192004077E0
2.087918671E2,-1.290466461E0,-7.102729797E-1,1.309417053E1,1.317676339E1
2.089922201E2,-2.118245087E0,3.279679871E-1,1.158815231E1,1.178472737E1
2.091925721E2,1.554667053E0,1.916165314E0,4.739743652E0,5.343580171E0
2.093929251E2,-9.819580078E-2,1.853146362E0,1.438688232E1,1.450607379E1
2.095932775E2,-1.598525848E0,1.099313965E0,7.217990112E0,7.474165996E0
2.097936305E2,-5.825885010E-1,2.508633270E0,8.688831482E0,9.062474429E0
2.099939825E2,-2.461481323E0,1.539997559E0,1.317245773E1,1.348866656E1
2.101943345E2,-1.645228729E0,2.138303375E0,6.108946381E0,6.678199217E0
2.103946875E2,9.086105347E-1,3.701951752E0,1.265139130E1,1.321316471E1
2.105950395E2,-8.666976929E-2,-1.541195068E0,1.573228455E1,1.580783258E1
2.107953925E2,9.077124023E-1,1.347198486E-2,8.895401917E0,8.941604921E0
2.109957445E2,-2.047741699E-1,9.044192505E-1,1.189845703E1,1.193453754E1
2.111960965E2,3.210823059E-1,-2.160307617E0,1.238389755E1,1.257501258E1
2.113964495E2,1.387315063E0,9.663903809E-1,6.088439026E0,6.318832426E0
2.115968015E2,-3.348536682E-1,2.398013306E0,1.496078888E1,1.515545442E1
2.117971535E2,-4.143383789E-1,-3.878434753E-1,5.660179596E0,5.688561498E0
2.119975065E2,2.245330811E-3,1.764231262E0,6.611451416E0,6.842792326E0
2.121978585E2,-4.848417664E-1,1.311422882E0,1.387045624E1,1.394074811E1
2.123982105E2,-2.343676300E0,-6.319857788E-1,4.643194427E0,5.239415914E0
2.125985622E2,1.477577362E0,3.677103424E0,7.365732880E0,8.364110551E0
2.127989152E2,1.120420074E0,-2.002835083E-1,1.603211105E1,1.607246215E1
2.129992672E2,-5.596861267E-1,2.192191315E0,8.249944153E0,8.554561932E0
2.131996192E2,1.680555267E0,1.053209839E0,1.219484070E1,1.235506603E1
2.133999712E2,-1.091485245E1,3.807033234E0,1.042731628E1,1.556780109E1
2.136003232E2,8.348139954E-1,9.339079285E-1,6.956783295E0,7.068658447E0
2.138006752E2,-2.406395874E0,3.575464783E0,6.767876129E0,8.023642366E0
2.140010282E2,-4.168681183E0,9.327104187E-1,8.168363800E0,9.217918350E0
2.142013802E2,-3.226839752E0,3.641028442E0,6.844367065E0,8.397317633E0
2.144017322E2,-2.583327942E0,4.611460419E0,1.157587784E1,1.272556868E1
2.146020842E2,-1.263073425E0,1.535806274E0,5.985752563E0,6.307399555E0
2.148024362E2,6.827302551E-1,3.113076324E0,7.633675690E0,8.272265067E0
2.150027882E2,3.510200500E-1,3.501219177E0,9.760752411E0,1.037564641E1
2.152031402E2,-6.641688538E-1,1.753453674E0,5.313350830E0,5.634484635E0
2.154034922E2,4.370910645E-2,5.796096954E0,9.920320587E0,1.148953484E1
2.156038439E2,-8.541238403E-1,1.295705566E0,1.260813126E1,1.270328124E1
2.158041959E2,-1.163979492E0,1.783092041E0,5.096002808E0,5.522998289E0
2.160045469E2,1.184786224E0,3.543281708E0,1.046458878E1,1.111153373E1
2.162048989E2,9.392967224E-1,3.052901459E0,4.892575836E0,5.842925976E0
2.164052509E2,-9.722282410E-1,3.422632599E0,6.202801208E0,7.150831035E0
2.166056037E2,-2.934497681E0,3.889511719E0,1.330178879E1,1.416605672E1
2.168059547E2,-5.580395508E-1,2.930456085E0,6.565347290E0,7.211294339E0
2.170063067E2,-1.179846497E0,4.663402405E0,5.941295013E0,7.644497772E0
2.172066587E2,1.613494720E0,5.147645416E0,9.443861389E0,1.087603496E1
2.174070097E2,1.492995300E0,2.647993469E0,5.134772186E0,5.967142514E0
2.176073608E2,3.812571716E-1,6.182742920E0,1.309806244E1,1.448899260E1
2.178077128E2,-2.129621429E0,-1.754351807E0,1.112426697E1,1.146134169E1
2.180080638E2,-1.507365417E-1,2.833607483E0,4.756957855E0,5.539016240E0
2.182084158E2,-2.773731995E-1,4.692741394E0,1.514041534E1,1.585342028E1
2.184087668E2,1.825154572E0,2.658771057E0,4.504582672E0,5.539992581E0
2.186091182E2,-4.156855774E-1,5.443580017E0,7.493567047E0,9.271402536E0
2.188094702E2,1.151106262E-1,4.861440582E0,1.193004135E1,1.288304085E1
2.190098212E2,-6.945556641E-2,2.405048676E0,6.036497040E0,6.498336689E0
2.192101732E2,-1.706152039E0,3.214864655E0,9.509574738E0,1.018225521E1
2.194105242E2,-8.726852417E-1,-6.111790466E-1,1.335522766E1,1.339765745E1
2.196108755E2,-7.566764832E-1,3.495680695E0,5.590125275E0,6.636402897E0
2.198112265E2,-3.477718048E0,2.349065094E0,1.303324722E1,1.369226653E1
2.200115785E2,7.843688965E-2,1.692380676E0,6.420598297E0,6.640360472E0
2.202119295E2,3.321592712E-1,3.115770721E0,5.999673615E0,6.768636528E0
2.204122805E2,3.682342529E-1,5.041216736E0,1.346884140E1,1.438607491E1
2.206126318E2,-3.179388428E-1,9.487271118E-1,7.618856506E0,7.684278932E0
2.208129828E2,-1.480571136E0,3.971092072E0,9.448651428E0,1.035561089E1
2.210133338E2,-1.422940979E0,2.037263489E-1,1.385743332E1,1.393178824E1
2.212136848E2,-3.460803223E-1,1.449286194E0,7.304959259E0,7.455376036E0
2.214140358E2,9.168434143E-1,3.817511444E0,9.135053558E0,9.942997485E0
2.216143861E2,1.089135132E0,1.208437042E0,9.477840729E0,9.616444265E0
2.218147371E2,-3.381468201E-1,3.245700531E0,5.693260803E0,6.562174471E0
2.220150881E2,-8.928932190E-1,4.357139282E0,1.464749039E1,1.530787038E1
2.222154381E2,-1.068777466E0,4.144281921E0,5.891897736E0,7.282294751E0
2.224157891E2,-3.132386169E0,2.194286957E0,6.359375610E0,7.420808347E0
2.226161402E2,1.579814758E0,6.891668701E-1,1.510179565E1,1.519983545E1
2.228164912E2,8.430468750E-1,2.875670013E0,5.692063293E0,6.432712538E0
2.230168412E2,-3.133583679E0,3.030897217E0,1.277787827E1,1.350110579E1
2.232171922E2,-4.024530945E0,-4.797523499E-1,1.064391586E1,1.138946691E1
2.234175422E2,-1.274599457E0,1.225501556E0,5.486241302E0,5.764139265E0
2.236178944E2,-2.154020691E-1,4.877756653E0,1.496797394E1,1.574417835E1
2.238182444E2,1.247505798E0,2.238295441E0,8.050109711E0,8.448106507E0
2.240185954E2,-4.266128540E-2,4.565805359E0,5.727090454E0,7.324477021E0
2.242189454E2,2.078427887E0,6.186335449E0,1.275003616E1,1.432319905E1
2.244192964E2,1.103954315E0,2.691552887E0,9.016799469E0,9.474483877E0
2.246196457E2,5.649252319E-1,4.136797485E0,9.284742279E0,1.018030811E1
2.248199957E2,7.436535645E-1,8.310717773E-1,1.380174911E1,1.384673173E1
2.250203457E2,2.216889954E-1,3.140619049E0,4.389322357E0,5.401739051E0
2.252206957E2,-5.575904846E-1,4.392016754E0,1.377375732E1,1.446779559E1
2.254210467E2,-9.842033386E-1,2.300266571E0,4.554728394E0,5.196675211E0
2.256213968E2,-2.056872711E0,2.535128174E0,2.317331085E0,4.003451457E0
2.258217468E2,2.506687317E0,8.335117035E0,1.175131302E1,1.462364575E1
2.260220968E2,2.019001465E0,2.833008728E0,5.625900879E0,6.614610047E0
2.262224468E2,-2.422562256E0,5.038971405E0,9.817334747E0,1.129779192E1
2.264227968E2,-1.998045044E0,1.877096558E0,1.229947311E1,1.260129812E1
2.266231460E2,-1.814376984E0,7.605683899E-1,7.085066528E0,7.353135102E0
2.268234960E2,2.725831604E-1,4.222419434E0,8.147557068E0,9.180730561E0
2.270238450E2,-2.606380005E0,-5.465135193E-1,1.191656937E1,1.221050856E1
2.272241950E2,-2.511776733E-1,4.009861450E0,3.369044037E0,5.243332604E0
2.274245450E2,-8.460406494E-1,5.300926666E0,1.324505676E1,1.429150576E1
2.276248950E2,-1.587897949E0,3.730392609E0,7.993078308E0,8.962508006E0
2.278252450E2,-2.890489197E-1,2.089355164E0,7.786208496E0,8.066845543E0
2.280255940E2,1.058448944E0,4.160148926E0,1.272563690E1,1.343015219E1
2.282259440E2,-1.120569763E0,2.008822632E0,4.467010803E0,5.024463203E0
2.284262940E2,-2.037263489E0,3.792812805E0,1.242790604E1,1.315251763E1
2.286266432E2,-4.352498932E0,-7.864645386E-1,1.166509232E1,1.247546200E1
2.288269932E2,-7.864645386E-1,1.509311371E0,5.979914703E0,6.217389094E0
2.290273422E2,4.215234375E-1,3.454216919E0,1.440828781E1,1.482255222E1
2.292276922E2,1.907034302E-1,4.192781067E-1,6.960675201E0,6.975898594E0
2.294280412E2,-4.959187317E-1,3.553610229E0,4.487368469E0,5.745481427E0
2.296283908E2,-2.809657288E0,2.135010223E0,1.627909744E1,1.665717432E1
2.298287398E2,-3.962260437E-1,1.544937286E0,1.054796539E1,1.066786765E1
2.300290898E2,2.914140015E0,5.494174805E0,6.717580719E0,9.154455720E0
2.302294388E2,-2.290686493E0,-7.948471069E-2,1.784813461E1,1.799470677E1
2.304297878E2,-1.462159424E0,1.813329163E0,4.469555511E0,5.040138818E0
2.306301383E2,-3.255579987E0,2.623444519E0,1.554577240E1,1.609820803E1
2.308304873E2,-3.730093231E0,-8.117619324E-1,8.178392944E0,9.025445369E0
2.310308363E2,8.065228271E-1,2.916085968E0,3.597768402E0,4.700848213E0
2.312311853E2,7.707472229E-1,3.933669891E0,1.347093704E1,1.405467733E1
2.314315343E2,9.762698364E-1,3.110381927E0,5.390440521E0,6.299557726E0
2.316318843E2,-4.921765137E-1,4.250710602E0,7.129224701E0,8.314843545E0
2.318322333E2,-2.952310638E0,8.056246948E-1,1.792971497E1,1.818900349E1
2.320325823E2,1.811832275E0,2.231409760E0,4.071533203E0,4.983904928E0
2.322329313E2,-1.320553894E0,2.785407715E0,1.198048645E1,1.237070791E1
2.324332803E2,-1.995350647E0,-2.945874023E-1,8.518336029E0,8.753870838E0
2.326336293E2,3.427871704E-2,3.700604553E0,4.052073669E0,5.487709004E0
2.328339783E2,-2.390379181E0,3.904779968E0,1.392898453E1,1.466212226E1
2.330343273E2,2.459385681E-1,2.014361115E0,7.813601532E0,8.072825118E0
2.332346763E2,2.388732605E0,4.848118286E0,6.236630859E0,8.252627391E0
2.334350253E2,4.578977966E-1,2.252815247E-1,1.862831223E1,1.863530087E1
2.336353733E2,-6.725514221E-1,1.979333954E0,4.111350403E0,4.612297741E0
2.338357223E2,-1.503024445E0,3.378624115E0,1.496947083E1,1.541944358E1
2.340360713E2,-3.638783112E0,2.324665833E-1,9.576934662E0,1.024755877E1
2.342364203E2,2.080673218E-2,1.333277435E0,5.169649658E0,5.338851864E0
2.344367693E2,8.927435303E-1,3.726650391E0,1.306647812E1,1.361681918E1
2.346371185E2,4.960684204E-1,1.657503204E0,6.708749084E0,6.928254833E0
2.348374665E2,-1.612297211E0,4.281845856E0,4.433929596E0,6.371297975E0
2.350378155E2,6.078858948E-1,4.034410400E0,1.349788101E1,1.410102068E1
2.352381645E2,1.226998444E0,2.678829346E0,8.920998688E0,9.394991721E0
2.354385135E2,1.253193970E0,4.445156250E0,6.590944061E0,8.048009246E0
2.356388607E2,5.399272156E-1,-2.065704346E-2,1.647309402E1,1.648195300E1
2.358392097E2,4.757107544E-1,2.381098480E0,3.531306610E0,4.285563798E0
2.360395587E2,-1.487756195E0,2.993774414E0,1.396999924E1,1.436443464E1
2.362399067E2,-3.559597778E0,-1.453028412E0,9.621392212E0,1.036113971E1
2.364402557E2,3.731739807E-1,2.339485016E0,4.483326874E0,5.070766098E0
2.366406053E2,9.413923645E-1,3.107837219E0,1.456875412E1,1.492626773E1
2.368409533E2,1.104553070E0,2.472707977E0,7.624694366E0,8.091371108E0
2.370413023E2,2.222877502E-1,4.026177521E0,7.881111145E0,8.852763984E0
2.372416503E2,-1.435065765E0,2.346221008E0,1.297292267E1,1.326125519E1
2.374419993E2,-4.092489624E-1,4.026626587E-1,8.667126617E0,8.686121444E0
2.376423485E2,1.337319031E0,3.769161987E0,7.477700043E0,8.480035507E0
2.378426965E2,-2.033521271E0,-1.080004120E0,1.160162430E1,1.182790362E1
2.380430455E2,-3.137475586E-1,1.975891113E0,5.915099487E0,6.244276192E0
2.382433935E2,-1.704804840E0,1.040186920E0,1.753962616E1,1.765295540E1
2.384437415E2,8.848100281E-1,1.523681488E0,6.653963013E0,6.883292660E0
2.386440895E2,6.033952332E-1,2.971620483E0,6.901548157E0,7.538300940E0
2.388444375E2,1.744622040E0,2.932102661E0,1.413705185E1,1.454294217E1
2.390447865E2,8.801696777E-2,7.662565613E-1,6.481222229E0,6.526954702E0
2.392451345E2,-6.917115784E-1,3.407663727E0,1.129146927E1,1.181473297E1
2.394454835E2,-3.001109161E0,1.323397980E0,1.356868378E1,1.395948487E1
2.396458323E2,-2.778222656E-1,7.590715027E-1,6.276298370E0,6.328135270E0
2.398461803E2,1.317260742E-2,2.560724945E0,1.142499161E1,1.170845502E1
2.400465293E2,1.332229614E-2,-9.160949707E-2,7.504344635E0,7.504915601E0
2.402468773E2,-3.457809448E-1,3.328179016E0,5.449118500E0,6.394468895E0
2.404472253E2,-1.902543640E-1,3.196003876E0,1.540102341E1,1.573029432E1
2.406475731E2,2.830613708E-1,2.702779541E0,9.109007721E0,9.505743666E0
2.408479211E2,1.824406128E0,2.855611725E0,5.641169128E0,6.580711601E0
2.410482701E2,2.509681091E0,3.370540924E0,1.509326340E1,1.566734327E1
2.412486181E2,5.670208740E-1,1.354982300E0,6.105054474E0,6.279265867E0
2.414489661E2,-4.574487305E-1,3.439397736E0,1.229378494E1,1.277403086E1
2.416493142E2,-1.993704071E0,1.938917999E0,1.277593231E1,1.307511780E1
2.418496622E2,1.389111328E-1,1.147813110E0,5.254523163E0,5.380221641E0
2.420500102E2,8.414002991E-1,3.397484894E0,1.187869812E1,1.238363142E1
2.422503582E2,8.035290527E-1,1.992656250E0,7.351362762E0,7.658908038E0
2.424507062E2,2.853067017E-1,3.298390961E0,3.950285339E0,5.154176666E0
2.426510533E2,-8.412506104E-2,5.494623871E0,1.308279419E1,1.419004835E1
2.428514013E2,-1.646575928E-1,2.239492950E0,9.481882324E0,9.744153796E0
2.430517493E2,1.763782196E0,3.136278076E0,4.966222687E0,6.132742908E0
2.432520973E2,3.561094666E0,7.249424744E-1,1.781340683E1,1.818033002E1
2.434524453E2,1.948947144E-1,1.731299744E0,6.357429657E0,6.591835450E0
2.436527925E2,-1.721569977E0,2.815794525E0,1.276186157E1,1.318171509E1
2.438531405E2,-4.058360596E0,-2.048639832E0,1.230965195E1,1.312229961E1
2.440534875E2,-4.026626587E-2,1.234931946E0,5.708079987E0,5.840278710E0
2.442538355E2,3.653901672E-1,3.663481750E0,1.164144150E1,1.220974073E1
2.444541825E2,1.114432526E0,2.437680817E0,6.517746277E0,7.047358665E0
2.446545301E2,-4.474195862E-1,3.240611115E0,6.288423157E0,7.088442035E0
2.448548771E2,-9.800120544E-1,2.977009277E0,1.433000061E1,1.466873973E1
2.450552251E2,6.855743408E-2,1.376088409E0,9.886191559E0,9.981738474E0
2.452555721E2,9.864486694E-1,1.672172699E0,7.674989777E0,7.916736107E0
2.454559191E2,6.601272583E-2,2.805166626E-1,1.690404785E1,1.690650410E1
2.456562675E2,-1.963167572E0,9.098080444E-1,4.237837372E0,4.758260521E0
2.458566145E2,-3.452420654E0,1.244811401E0,1.364921631E1,1.413399694E1
2.460569615E2,-4.136947174E0,-2.214045868E0,8.742869110E0,9.922403504E0
2.462573095E2,-3.091072083E-1,6.071374512E-1,5.750142517E0,5.790362866E0
2.464576565E2,1.880240021E0,3.972439270E0,1.205757614E1,1.283357778E1
2.466580035E2,9.479786682E-1,2.204914856E-1,6.942562866E0,7.010453566E0
2.468583505E2,-5.445675659E-1,3.672912140E0,5.994733887E0,7.051501386E0
2.470586975E2,-5.439688110E-1,3.394640808E0,1.270093826E1,1.315801357E1
2.472590445E2,1.545086975E0,1.447489929E0,1.151615204E1,1.170915363E1
2.474593915E2,6.941065979E-1,2.411485291E0,7.041956177E0,7.475706794E0
2.476597383E2,-2.305505676E0,-1.582808533E0,1.825019852E1,1.846321709E1
2.478600853E2,4.378395081E-1,2.189047852E0,3.539240112E0,4.184477805E0
2.480604323E2,-2.649490356E-1,3.402274933E0,1.234782257E1,1.281071407E1
2.482607793E2,-3.855682068E0,-1.314865723E0,7.259753265E0,8.324612517E0
2.484611253E2,3.969744873E-1,2.029180298E0,5.242098999E0,5.635136497E0
2.486614723E2,1.069226532E0,4.014651489E0,1.242206818E1,1.309841402E1
2.488618193E2,7.259902954E-1,1.672172699E0,9.614207153E0,9.785509830E0
2.490621663E2,-1.127754822E0,3.197949829E0,1.066397415E1,1.119013220E1
2.492625123E2,1.751358032E-2,3.124003601E0,1.299672318E1,1.336691881E1
2.494628593E2,-6.405180359E-1,6.584806824E-1,5.541626129E0,5.617248465E0
2.496632059E2,-2.587369537E0,2.135159912E0,1.281874329E1,1.325041767E1
2.498635519E2,-2.160756683E0,-4.264631653E-1,1.075992462E1,1.098301954E1
2.500638989E2,-1.561253357E-1,3.713477783E0,3.476969604E0,5.089558920E0
2.502642459E2,-8.999285889E-1,3.817062378E0,1.018886215E1,1.091754316E1
2.504645919E2,-7.569758606E-1,2.054178314E0,1.001312759E1,1.024965293E1
2.506649395E2,1.105600891E0,3.800297241E0,4.475243683E0,5.974313222E0
2.508652855E2,1.326092377E0,4.682412872E0,1.314701065E1,1.401882307E1
2.510656325E2,-4.231700134E-1,1.711091766E0,5.375920715E0,5.657511063E0
2.512659785E2,-1.042432251E0,3.586691437E0,1.264375717E1,1.318391504E1
2.514663245E2,-4.727618866E0,-8.933422852E-1,1.337438782E1,1.421346862E1
2.516666703E2,3.147953796E-1,2.132315826E0,5.057682495E0,5.497819489E0
2.518670173E2,3.400927734E-1,3.385509796E0,1.394051056E1,1.434974475E1
2.520673633E2,2.019001465E0,2.215542755E0,7.104675751E0,7.711122755E0
2.522677093E2,4.575984192E-1,3.097808075E0,7.878416748E0,8.477927909E0
2.524680553E2,2.200573883E0,3.192411346E0,1.090347610E1,1.157237257E1
2.526684017E2,-1.893562317E-1,1.782193909E0,9.043893127E0,9.219765388E0
2.528687487E2,2.032473450E0,4.265380096E0,8.706794128E0,9.906194006E0
2.530690947E2,-1.655557251E-1,5.834866333E-1,1.758498184E1,1.759543838E1
2.532694407E2,-6.649172974E-1,2.564018097E0,4.982389069E0,5.642739108E0
2.534697867E2,-2.287393341E0,3.614982605E0,1.257175690E1,1.327965884E1
2.536701318E2,-3.298840027E0,-3.927832031E-1,8.043074341E0,8.702164617E0
2.538704778E2,1.339714050E-1,2.052681427E0,5.552703094E0,5.921483010E0
2.540708238E2,2.604583740E-2,4.011807404E0,1.537033722E1,1.588529330E1
2.542711688E2,1.424737244E0,3.280428314E0,6.176156616E0,7.136945893E0
2.544715148E2,-1.192270660E0,3.390748901E0,6.776707764E0,7.670883623E0
2.546718612E2,-6.614744568E-1,5.211263123E0,1.182046921E1,1.293515768E1
2.548722072E2,-3.505709839E-1,1.934876404E0,1.079480209E1,1.097243815E1
2.550725532E2,2.578986969E0,3.376678162E0,6.968459015E0,8.161651195E0
2.552728992E2,-7.726931763E-1,1.457968140E-1,2.118963593E1,2.120422086E1
2.554732442E2,-7.165599060E-1,2.000440063E0,2.174228668E0,3.040146189E0
2.556735901E2,-1.924996948E0,4.370760956E0,1.227642105E1,1.317268683E1
2.558739361E2,-5.155578918E0,-1.661844177E0,8.529263306E0,1.010396222E1
2.560742821E2,2.350112915E-1,1.421144714E0,5.809269562E0,5.985189675E0
2.562746271E2,-2.591111755E-1,3.778442688E0,1.177077255E1,1.236506588E1
2.564749731E2,5.640270996E-1,1.604363708E0,8.750952301E0,8.914666323E0
2.566753195E2,-2.903512115E0,3.177592163E0,9.366322632E0,1.030802960E1
2.568756645E2,-2.561323700E0,3.267106018E0,1.618090164E1,1.670496749E1
2.570760105E2,-5.894741821E-1,1.061143341E0,7.626939697E0,7.722934296E0
2.572763555E2,-2.660267944E0,9.163943481E-1,1.189426575E1,1.222253500E1
2.574767015E2,-4.756658478E0,-1.675465851E0,1.286140457E1,1.381480051E1
2.576770467E2,-1.453178101E0,3.428919525E0,5.035827942E0,6.263288175E0
2.578773927E2,-3.738475800E0,2.966381378E0,1.322395065E1,1.405875139E1
2.580777387E2,-1.551972656E0,2.724634094E0,8.452772369E0,9.015631470E0
2.582780837E2,2.471360779E-1,2.755769348E0,7.088958435E0,7.609774808E0
2.584784287E2,-1.181493073E0,4.104015656E0,1.433074905E1,1.495356943E1
2.586787747E2,-6.096821594E-1,1.526375885E0,4.839735718E0,5.111220744E0
2.588791197E2,-3.175646210E0,2.018253021E0,1.352542374E1,1.403905842E1
2.590794657E2,-3.670217743E0,-2.612068176E-1,1.222073685E1,1.276264613E1
2.592798107E2,-6.286926270E-2,1.719025269E0,5.114264832E0,5.395804406E0
2.594801567E2,-4.432283020E-1,4.284540253E0,1.329146027E1,1.397199529E1
2.596805015E2,-2.248324585E-1,1.055455170E0,8.912466431E0,8.977560533E0
2.598808465E2,-8.092172241E-1,3.593876495E0,5.124743042E0,6.311400164E0
2.600811925E2,-2.091301117E0,4.238885193E0,1.342677887E1,1.423446799E1
2.602815375E2,-9.369017029E-1,8.653504944E-1,1.045815216E1,1.053563301E1
2.604818835E2,2.058968353E0,3.084635468E0,8.552465057E0,9.321962519E0
2.606822284E2,6.565347290E-1,3.559597778E-1,1.696706680E1,1.698349496E1
2.608825734E2,-1.343755646E0,1.877994690E0,4.943769379E0,5.456500615E0
2.610829194E2,-2.564167786E0,2.724484406E0,1.241458374E1,1.296609660E1
2.612832644E2,-5.119354248E0,-2.714754639E0,1.115839600E1,1.257328445E1
2.614836094E2,1.209484863E-1,2.287243652E0,5.258415070E0,5.735594224E0
2.616839540E2,3.606001282E-1,5.164560242E0,1.274240204E1,1.375396396E1
2.618843000E2,2.146685944E0,2.701132965E0,4.097279663E0,5.356498901E0
2.620846450E2,-1.396595764E-1,3.302881622E0,1.008393036E1,1.061198300E1
2.622849900E2,-1.260379028E-1,3.962859192E0,1.433673660E1,1.487488336E1
2.624853350E2,-1.657203827E0,2.327659607E-1,1.031220566E1,1.044710917E1
2.626856807E2,-2.767744446E-1,2.904260559E0,9.375902710E0,9.819311845E0
2.628860257E2,-1.205293579E0,3.754193115E-1,1.406145905E1,1.411801341E1
2.630863707E2,-6.789880371E-1,2.519111481E0,1.873953094E0,3.212265183E0
2.632867157E2,-9.407936096E-1,5.619314575E0,1.221789276E1,1.348104938E1
2.634870607E2,-1.969753876E0,5.766009521E-1,6.950346680E0,7.247048914E0
2.636874064E2,3.652404785E-2,3.114423523E0,5.476810913E0,6.300509953E0
2.638877514E2,-1.080453186E0,5.267845459E0,1.285137543E1,1.393109562E1
2.640880964E2,1.762285309E0,2.756517792E0,2.191742249E0,3.937991103E0
2.642884414E2,-1.605561218E0,3.144960022E0,1.005728577E1,1.065915556E1
2.644887864E2,-6.852749634E-1,4.114493866E0,1.243763580E1,1.311843916E1
2.646891323E2,-3.517684937E-1,6.486012268E-1,9.816286926E0,9.843978547E0
2.648894773E2,1.000968475E0,1.218765564E0,9.886191559E0,1.001119928E1
2.650898223E2,-1.449735260E0,-2.728825378E-1,1.406370438E1,1.414086200E1
2.652901673E2,-1.410067749E-1,1.458866272E0,5.545518036E0,5.735934448E0
2.654905123E2,-6.976991272E-1,3.251538391E0,1.341031311E1,1.381650403E1
2.656908575E2,-2.220183105E0,-1.822460175E0,1.008857071E1,1.048951062E1
2.658912025E2,2.799179077E-2,2.051932983E0,4.538861389E0,4.981212224E0
2.660915475E2,1.527723083E0,5.525160370E0,1.266576141E1,1.390262015E1
2.662918925E2,8.906478882E-1,1.523082733E0,6.748715973E0,6.975543130E0
2.664922375E2,-6.631210327E-2,3.445235596E0,7.911797333E0,8.629633981E0
2.666925822E2,-7.454498291E-2,4.751569061E0,1.439885742E1,1.516278538E1
2.668929272E2,1.948947144E-1,2.220931549E0,7.382348328E0,7.711652723E0
2.670932722E2,9.818083191E-1,3.051404572E0,8.554111633E0,9.134979106E0
2.672936172E2,-1.909279633E0,-1.536405029E0,1.578422653E1,1.597334331E1
2.674939622E2,-1.375040588E0,2.458637238E0,2.970123596E0,4.093564200E0
2.676943071E2,-3.402424622E0,4.688250732E-1,1.224259140E1,1.271524024E1
2.678946521E2,-3.210224304E0,6.185137939E-1,6.441405029E0,7.223558552E0
2.680949971E2,6.664141846E-1,2.849624176E0,5.303471375E0,6.057332287E0
2.682953421E2,-4.781057739E-1,3.806284790E0,1.356988129E1,1.410170441E1
2.684956871E2,1.571731567E-1,1.463955688E0,5.364694061E0,5.563075771E0
2.686960317E2,-2.224075012E0,2.886896667E0,1.281155823E1,1.331978627E1
2.688963767E2,-2.209704895E0,9.066645813E-1,1.313054489E1,1.334601235E1
2.690967217E2,-1.071920929E0,6.876699829E-1,7.002138977E0,7.117011644E0
2.692970667E2,-1.869312744E0,1.913021851E0,1.209709396E1,1.238925604E1
2.694974107E2,-1.375190277E0,1.135089569E0,7.674840088E0,7.879260562E0
2.696977564E2,1.916015625E-2,3.213667145E0,5.511538696E0,6.380053482E0
2.698981014E2,-4.104464722E-1,4.614154816E0,1.320389236E1,1.399291480E1
2.700984464E2,8.274792480E-1,3.152594147E0,7.646548920E0,8.312236892E0
2.702987914E2,1.794618073E0,2.699935455E0,6.790628815E0,7.524821937E0
2.704991364E2,9.029223633E-1,3.018473053E0,1.587059692E1,1.618030578E1
2.706994815E2,-2.818638611E-1,1.326691132E0,4.618346100E0,4.813385222E0
2.708998265E2,-2.749632111E0,3.099903717E0,1.354428452E1,1.416395153E1
2.711001705E2,-4.129013672E0,-2.511776733E-1,1.068463120E1,1.145745120E1
2.713005155E2,-6.379733276E-1,1.865720215E0,5.353766785E0,5.705325641E0
2.715008605E2,-1.771116943E0,4.444856873E0,1.265678009E1,1.353098999E1
2.717012050E2,6.354286194E-1,2.122136993E0,5.365442505E0,5.804757378E0
2.719015500E2,-2.500999146E0,3.043920135E0,8.239316254E0,9.132731182E0
2.721018940E2,1.405577087E0,6.868167572E0,1.245245499E1,1.429024170E1
2.723022390E2,-9.547146606E-1,2.052681427E0,8.068222046E0,8.379808357E0
2.725025840E2,2.214944000E0,4.477189636E0,5.906866608E0,7.735779022E0
2.727029280E2,2.346520386E0,2.704575806E0,1.681243835E1,1.718950179E1
2.729032730E2,-1.005608826E0,1.908680878E0,3.073109436E0,3.754772085E0
2.731036180E2,-1.527573395E0,3.047812042E0,8.700956268E0,9.345013574E0
2.733039620E2,-4.097878418E0,-1.889969788E0,9.852511597E0,1.083681586E1
2.735043070E2,7.244934082E-1,3.357218628E0,4.630919952E0,5.765520551E0
2.737046522E2,-8.038284302E-1,3.306923218E0,1.218735626E1,1.265359767E1
2.739049962E2,7.171586609E-1,2.591860199E0,5.432503052E0,6.061694915E0
2.741053412E2,-5.065466309E-1,3.788172455E0,9.098230133E0,9.868365193E0
2.743056862E2,-5.307512970E0,-7.108717346E-1,1.548649567E1,1.638617041E1
2.745060302E2,-1.212628326E0,8.912466431E-1,5.914051666E0,6.102523670E0
2.747063750E2,-1.254092102E0,2.741548920E0,8.333919525E0,8.862451813E0
2.749067190E2,7.363188171E-1,-3.742218018E-3,6.553222504E0,6.594460144E0
2.751070640E2,-1.142873383E0,2.487227783E0,5.866450653E0,6.473616059E0
2.753074080E2,-3.867806854E0,2.634222107E0,1.580623077E1,1.648441650E1
2.755077530E2,-3.101550293E-1,3.382665710E0,5.358856201E0,6.344758722E0
2.757080967E2,6.309379578E-1,3.591182098E0,6.455625458E0,7.414160210E0
2.759084407E2,1.241667938E0,4.822820892E0,1.214798813E1,1.312916434E1
2.761087857E2,-7.337741089E-1,1.903741150E0,5.280868378E0,5.661291869E0
2.763091297E2,-3.206182709E0,3.002306671E0,9.640702057E0,1.059417713E1
2.765094737E2,-5.735023956E0,-2.070195007E-1,1.047611481E1,1.194497126E1
2.767098202E2,-8.388555908E-1,1.375040588E0,6.621181183E0,6.814283204E0
2.769101642E2,1.382225647E0,4.643344116E0,1.323278229E1,1.409176069E1
2.771105082E2,7.619155884E-2,2.010319519E0,5.621410217E0,5.970547927E0
2.773108522E2,1.776655426E0,2.779420166E0,6.013295288E0,6.858673427E0
2.775111972E2,-2.659220123E0,4.736300812E0,1.222043747E1,1.337322283E1
2.777115398E2,2.099234619E0,1.218915253E0,1.089973389E1,1.116676942E1
2.779118838E2,1.306932220E0,2.705024872E0,7.453899536E0,8.036532192E0
2.781122278E2,-1.845661926E-1,4.073030090E-1,1.725596603E1,1.726175901E1
2.783125718E2,-1.047970734E0,2.174378357E0,3.407214661E0,4.175556926E0
2.785129158E2,-5.950126648E-1,3.746858368E0,1.193677734E1,1.252516032E1
2.787132602E2,-3.878584442E0,-2.471959534E0,9.207502899E0,1.029233262E1
2.789136042E2,7.300318909E-1,2.616409149E0,5.024301910E0,5.711580612E0
2.791139482E2,7.110214233E-2,5.230123901E0,1.405128021E1,1.499325606E1
2.793142922E2,8.223898315E-1,2.006128235E0,7.851173401E0,8.145047532E0
2.795146362E2,-4.171824646E-1,3.283122711E0,8.552764435E0,9.170753264E0
2.797149795E2,2.329156494E0,2.595901794E0,1.471709564E1,1.512470100E1
2.799153235E2,-9.008267212E-1,5.571414185E-1,7.874674530E0,7.945589613E0
2.801156675E2,-2.042652283E0,2.192191315E0,1.070903046E1,1.112031764E1
2.803160115E2,-2.691253510E0,-1.398841095E0,1.048868866E1,1.091843357E1
2.805163545E2,-3.002755737E-1,2.712359619E0,4.586163025E0,5.336661074E0
2.807166993E2,3.418890381E-1,4.852459259E0,1.382674713E1,1.465749587E1
2.809170433E2,-2.683918762E-1,2.202220459E0,9.239835663E0,9.502440330E0
2.811173873E2,7.848179626E-1,4.039948883E0,6.123615875E0,7.378061914E0
2.813177303E2,1.506916351E0,4.245022430E0,1.361793137E1,1.434360718E1
2.815180743E2,3.302133179E-1,2.880909119E0,5.457201691E0,6.179783854E0
2.817184178E2,-9.782157898E-1,3.121608582E0,1.062969543E1,1.112168024E1
2.819187618E2,-3.830833740E0,-2.562670898E-1,1.162183228E1,1.223960561E1
2.821191058E2,6.024971008E-1,2.804118805E0,6.007906494E0,6.657403809E0
2.823194488E2,-2.287243652E-1,3.573668518E0,1.285541702E1,1.334485550E1
2.825197928E2,1.830094299E0,1.962419128E0,1.073597443E1,1.106623156E1
2.827201358E2,2.095642090E-3,3.427722015E0,5.965544586E0,6.880189301E0
2.829204798E2,1.814077606E0,4.929099884E0,1.353530319E1,1.451865475E1
2.831208228E2,-1.188528442E-1,4.866380310E-1,9.830207977E0,9.842963550E0
2.833211658E2,-1.665736084E0,2.721041565E0,1.014440460E1,1.063426954E1
2.835215098E2,-1.188678131E0,-5.620811462E-1,1.575848007E1,1.581324082E1
2.837218518E2,-7.381150818E-1,2.483036499E0,5.343138885E0,5.937964069E0
2.839221948E2,-1.066382446E0,3.348087616E0,1.226998444E1,1.276320415E1
2.841225378E2,-6.475534058E-1,1.523531799E0,8.923992462E0,9.076239090E0
2.843228808E2,3.023712158E-2,3.131188660E0,5.576503601E0,6.395517893E0
2.845232248E2,8.791218567E-1,3.575464783E0,1.370475082E1,1.419073637E1
2.847235679E2,1.177750854E0,2.837798767E0,6.873406677E0,7.528872311E0
2.849239109E2,3.353027344E-1,3.069816284E0,8.568481750E0,9.107967910E0
2.851242539E2,6.071374512E-1,1.600621490E0,1.371298370E1,1.381942572E1
2.853245969E2,-4.855902100E-1,1.691781921E0,8.568930817E0,8.747828260E0
2.855249399E2,3.570075989E-1,3.652105408E0,7.951464844E0,8.757346716E0
2.857252832E2,-1.042881317E0,-2.508782959E-1,1.066187851E1,1.071569852E1
2.859256262E2,-2.951861572E-1,2.998863831E0,5.783822479E0,6.521726889E0
2.861259692E2,-1.231638794E0,2.946921844E0,1.292696823E1,1.331569713E1
2.863263122E2,-1.288221130E0,1.814975739E0,8.601862335E0,8.885138505E0
2.865266542E2,4.866380310E-1,3.571722565E0,5.865552521E0,6.884673197E0
2.867269965E2,8.262817383E-1,4.257596283E0,1.275946655E1,1.347641845E1
2.869273395E2,5.209167480E-1,1.874701538E0,6.024671631E0,6.331076399E0
2.871276825E2,-2.341131592E-1,3.143014069E0,1.114806747E1,1.158502287E1
2.873280245E2,-9.942324829E-1,1.245859222E0,1.256816437E1,1.266883653E1
2.875283675E2,-1.126856689E0,1.621727600E0,6.290219421E0,6.592925510E0
2.877287105E2,-8.761280823E-1,2.539618835E0,1.151570297E1,1.182491772E1
2.879290525E2,1.086141357E0,1.394350433E0,8.439001007E0,8.622102654E0
2.881293955E2,-4.543052673E-1,3.008144531E0,4.632865906E0,5.542451921E0
2.883297375E2,-7.827223206E-1,3.848646698E0,1.296439041E1,1.354622288E1
2.885300805E2,-1.237925720E-1,1.181942139E0,7.109615479E0,7.208255272E0
2.887304233E2,-3.104544067E-1,2.734064484E0,9.272467804E0,9.672132635E0
2.889307663E2,-4.987628174E-1,4.008663940E-1,1.515837799E1,1.517187798E1
2.891311083E2,1.389111328E-1,2.706671448E0,5.941444702E0,6.530400583E0
2.893314513E2,-1.231638794E0,2.370470581E0,1.339534424E1,1.365911096E1
2.895317933E2,-8.674461365E-1,-9.924362183E-2,8.826245728E0,8.869324988E0
2.897321346E2,-8.625064087E-1,2.123633881E0,5.712121582E0,6.154841276E0
2.899324776E2,-4.373904419E-1,3.413501587E0,1.548215469E1,1.586002577E1
2.901328196E2,1.996548157E0,2.251617737E0,6.139782257E0,6.837610192E0
2.903331616E2,-9.105564880E-1,2.689756622E0,7.829917603E0,8.328956325E0
2.905335036E2,-1.889071655E-1,3.558549957E0,1.420426208E1,1.464445373E1
2.907338470E2,-1.560205536E0,-3.945794678E-1,6.926695862E0,7.111191871E0
2.909341890E2,3.089575195E-1,3.587739258E0,1.009740234E1,1.072030139E1
2.911345310E2,1.162632294E0,-4.656816101E-1,1.465123260E1,1.470466559E1
2.913348730E2,-8.184979248E-1,2.089055786E0,6.700067139E0,7.065761997E0
2.915352150E2,-1.811832275E0,2.664010162E0,1.405876465E1,1.442319485E1
2.917355568E2,-2.462828522E0,-1.010847931E0,8.241112518E0,8.660443026E0
2.919358988E2,-3.921844482E-2,2.269131317E0,6.108497314E0,6.516458736E0
2.921362408E2,-6.577322388E-1,4.039649506E0,1.554487427E1,1.607465383E1
2.923365828E2,1.464255066E0,2.653831329E0,6.337670746E0,7.025164347E0
2.925369248E2,-3.156935120E-1,3.284619598E0,7.545658722E0,8.235614965E0
2.927372669E2,-1.204844513E0,3.663930817E0,1.360101654E1,1.413731553E1
2.929376089E2,-1.851948853E0,7.337741089E-1,9.807604980E0,1.000785963E1
2.931379509E2,-4.487667847E-1,3.217559052E0,1.019185593E1,1.069710265E1
2.933382929E2,-1.448537750E0,-2.155068512E0,1.952809113E1,1.969997271E1
2.935386349E2,7.060816956E-1,2.852019196E0,5.625451813E0,6.346516600E0
2.937389773E2,-8.997789001E-1,3.333418121E0,1.250948639E1,1.297723114E1
2.939393183E2,-9.264234924E-1,3.412902832E-1,6.934329987E0,7.004260982E0
2.941396603E2,-2.059716797E-1,2.752625885E0,6.978637848E0,7.504715838E0
2.943400023E2,-2.123933258E0,2.833457794E0,1.412777115E1,1.456480323E1
2.945403443E2,1.182540894E-1,1.232237549E0,7.121141510E0,7.227935377E0
2.947406860E2,-1.954934692E-1,3.535497894E0,1.096484848E1,1.152240709E1
2.949410270E2,1.230441284E-1,1.195863190E0,1.367825592E1,1.373098371E1
2.951413690E2,-6.322851562E-1,1.541644135E0,4.935087433E0,5.208794402E0
2.953417110E2,8.334667969E-1,4.556225281E0,1.304342606E1,1.384141680E1
2.955420520E2,1.537901917E0,9.395960999E-1,8.560847626E0,8.748491025E0
2.957423940E2,-2.662962341E-1,3.071612549E0,5.694907379E0,6.475931392E0
2.959427360E2,-1.112336884E0,3.777843933E0,1.254137009E1,1.314516496E1
2.961430770E2,-7.843688965E-2,2.190694427E0,6.522536316E0,6.881044573E0
2.963434190E2,1.738484802E0,4.076772308E0,4.868026886E0,6.583318891E0
2.965437610E2,-7.080276489E-2,3.292852478E0,1.524040741E1,1.559223873E1
2.967441019E2,2.505789185E-1,1.575024719E0,7.118746490E0,7.295206937E0
2.969444439E2,3.126997375E-1,4.758454742E0,9.163644104E0,1.033020067E1
2.971447859E2,-5.403762817E-1,1.769021301E0,1.081306412E1,1.097013211E1
2.973451269E2,-9.621990967E-1,2.138003998E0,6.201304321E0,6.629710663E0
2.975454689E2,-6.433621216E-1,4.230352936E0,1.093580887E1,1.174315615E1
2.977458103E2,7.304809570E-1,6.518943787E-1,1.178918427E1,1.182976899E1
2.979461523E2,-7.816744995E-1,2.615211639E0,4.691244507E0,5.427533691E0
2.981464933E2,-2.837200012E0,3.355422363E0,1.460917007E1,1.525570101E1
2.983468353E2,-2.203417969E0,2.112107849E-1,7.302115173E0,7.630238970E0
2.985471763E2,-1.173559570E-1,3.101101227E0,6.631509705E0,7.321715796E0
2.987475183E2,-1.630110168E0,3.619622955E0,1.494222748E1,1.546056569E1
2.989478593E2,2.042352905E0,2.316283264E0,4.358187103E0,5.341363906E0
2.991482013E2,9.879455566E-3,3.038681030E0,6.932982788E0,7.569671746E0
2.993485423E2,-1.505868530E-1,4.535418549E0,1.206655746E1,1.289164485E1
2.995488833E2,-7.391629028E-1,1.703307953E0,1.003707779E1,1.020737725E1
2.997492249E2,6.911128235E-1,3.446133728E0,8.137078857E0,8.863719701E0
2.999495659E2,1.258882141E-1,3.664529572E0,1.320628738E1,1.370586193E1
3.001499069E2,1.838177490E-1,2.640658722E0,5.292843475E0,5.917859368E0
3.003502489E2,-8.250842285E-1,3.333867188E0,1.166628983E1,1.216132200E1
3.005505899E2,4.929249573E-1,4.510719910E0,1.378707962E1,1.451458348E1
3.007509314E2,1.129551086E0,3.031046906E0,4.880900116E0,5.855451899E0
3.009512734E2,-1.783241730E0,2.744542694E0,9.241482239E0,9.803951226E0
3.011516144E2,-2.203417969E0,-7.782316589E-1,1.024304947E1,1.050622471E1
3.013519554E2,-4.881349182E-1,4.056863708E0,4.099524994E0,5.788136490E0
3.015522964E2,4.317022705E-1,4.634662170E0,1.186941742E1,1.274949137E1
3.017526379E2,-1.884580994E-1,4.025429077E0,8.021668854E0,8.977013251E0
3.019529789E2,1.224603424E0,3.881278839E0,5.389841766E0,6.753841369E0
3.021533199E2,3.737727356E-1,5.027145996E0,1.128158981E1,1.235662461E1
3.023536609E2,2.544708252E-3,2.166295166E0,8.336314545E0,8.613186484E0
3.025540019E2,-1.673968964E0,2.689457245E0,1.112381790E1,1.156610034E1
3.027543428E2,-8.831634521E-2,2.552492065E0,1.335822144E1,1.360018733E1
3.029546848E2,-2.297721863E-1,2.178869019E0,6.613996124E0,6.967439285E0
3.031550258E2,-2.868035889E-1,3.813320160E0,9.579778748E0,1.031483533E1
3.033553668E2,7.788304138E-1,9.431886292E-1,9.851613464E0,9.927258909E0
3.035557078E2,-3.122506714E-1,2.962639160E0,4.705015869E0,5.568833415E0
3.037560492E2,-2.621049500E-1,4.147126007E0,1.245949036E1,1.313416358E1
3.039563902E2,-1.752106476E0,2.010618896E0,8.996441803E0,9.383412522E0
3.041567312E2,5.532495117E-1,3.660637665E0,5.571414185E0,6.689320530E0
3.043570722E2,1.721869354E0,4.905598755E0,1.270557861E1,1.372812664E1
3.045574132E2,2.439926147E-2,1.882934418E0,7.826774139E0,8.050119923E0
3.047577542E2,-8.162525940E-1,3.597918091E0,1.011192215E1,1.076393295E1
3.049580952E2,-2.998714142E0,6.776408386E-1,1.079854431E1,1.122764636E1
3.051584362E2,-4.234693909E-1,1.851799164E0,6.028713226E0,6.320907343E0
3.053587772E2,6.400689697E-1,5.001549225E0,1.162841858E1,1.267459276E1
3.055591172E2,1.265917511E0,1.894310760E0,5.559139709E0,6.007911011E0
3.057594577E2,8.412506104E-2,3.293600922E0,6.865473175E0,7.615090674E0
3.059597987E2,2.357597351E-1,4.657714233E0,1.451965622E1,1.525025578E1
3.061601397E2,-5.888754272E-1,2.417921906E0,9.220675507E0,9.550600893E0
3.063604807E2,6.171665955E-1,3.138972473E0,8.820407867E0,9.382624246E0
3.065608217E2,-3.198847961E-1,8.503816223E-1,1.455408463E1,1.458241593E1
3.067611629E2,1.323248291E-1,3.287912750E0,5.213957520E0,6.165487258E0
3.069615039E2,2.312690735E-1,3.817511444E0,1.097382980E1,1.162117978E1
3.071618449E2,-2.675087128E0,1.547631683E0,1.007554779E1,1.053887652E1
3.073621859E2,5.541476440E-1,2.399809570E0,4.740192719E0,5.341871638E0
3.075625259E2,1.068777466E0,3.989503784E0,1.320748489E1,1.383821097E1
3.077628663E2,2.882106628E0,3.351231079E0,9.422455902E0,1.040768772E1
3.079632073E2,-6.935078430E-1,3.279380493E0,6.260431366E0,7.101287942E0
3.081635473E2,-8.411009216E-1,4.305496674E0,1.452085373E1,1.516904563E1
3.083638883E2,-8.723858643E-1,1.133293304E0,7.649093628E0,7.781647906E0
3.085642293E2,2.020498352E0,3.982468414E0,8.889264679E0,9.947939223E0
3.087645696E2,-2.049088898E0,-1.631607056E-1,1.587853043E1,1.601103105E1
3.089649106E2,1.085542603E0,3.551664276E0,2.980152740E0,4.761725762E0
3.091652506E2,-1.570983124E0,4.348157959E0,1.353694977E1,1.430466618E1
3.093655916E2,-6.596781921E-1,2.206860809E0,5.423671417E0,5.892505544E0
3.095659316E2,1.028810577E0,3.151097260E0,5.452860718E0,6.381344306E0
3.097662725E2,4.204756165E-1,5.270839233E0,1.455333618E1,1.548412542E1
3.099666125E2,1.575324097E0,2.459685059E0,4.070485382E0,5.010044695E0
3.101669535E2,-1.447489929E0,3.523971863E0,1.118294495E1,1.181405360E1
3.103672935E2,-4.120930481E-1,2.012265472E0,1.394350433E1,1.409398262E1
3.105676345E2,3.038681030E-1,1.081351318E0,7.144942017E0,7.232693338E0
3.107679745E2,-2.074685669E-1,2.690056000E0,1.111753098E1,1.144023337E1
3.109683155E2,3.832031250E-2,3.550616455E-1,1.475197311E1,1.475629520E1
3.111686555E2,-1.434017944E-1,2.874771881E0,4.047133942E0,4.966303513E0
3.113689955E2,-1.874851227E0,3.697311401E0,1.045665527E1,1.124841403E1
3.115693365E2,-2.301314392E0,6.872209167E-1,9.039851532E0,9.353461190E0
3.117696765E2,5.769003296E-1,2.379302216E0,4.383334808E0,5.020708821E0
3.119700175E2,-3.981719971E-2,5.435197449E0,1.436697372E1,1.536075814E1
3.121703575E2,9.193881226E-1,1.977837067E0,7.175029449E0,7.499210731E0
3.123706975E2,-9.758207703E-1,4.011058960E0,9.318871307E0,1.019226092E1
3.125710375E2,-1.878892822E0,3.342399445E0,1.413360901E1,1.464447937E1
3.127713790E2,-6.113287354E-1,1.370400238E0,5.155429230E0,5.369373351E0
3.129717190E2,-7.110214233E-1,3.050805817E0,1.152812714E1,1.194615766E1
3.131720590E2,-2.095791779E0,-1.170865173E0,1.291080185E1,1.313210085E1
3.133723990E2,1.978884888E-1,3.215762787E0,4.378095703E0,5.435808325E0
3.135727400E2,-3.742966461E0,4.092040558E0,1.271261398E1,1.386957635E1
3.137730790E2,-8.722361755E-1,1.343456268E0,7.464677124E0,7.634597256E0
3.139734190E2,1.520388336E0,4.442312164E0,4.654720459E0,6.611515757E0
3.141737590E2,-2.480342102E-1,5.383704529E0,1.191552155E1,1.307766987E1
3.143740990E2,4.237687683E-1,1.823957062E0,7.342231750E0,7.577253223E0
3.145744390E2,-2.661465454E0,3.596421204E0,1.012195129E1,1.106668613E1
3.147747797E2,-2.155367889E0,3.065924377E0,1.492067230E1,1.538414655E1
3.149751197E2,-6.686595154E-1,8.128097534E-1,6.657256165E0,6.739942499E0
3.151754597E2,-1.063538361E0,2.837649078E0,1.233734436E1,1.270407147E1
3.153757997E2,-1.871258698E0,4.245172119E-1,9.427096252E0,9.620393325E0
3.155761397E2,5.867797852E-1,3.495531006E0,4.224066010E0,5.514143740E0
3.157764794E2,-2.988235931E0,3.677552490E0,1.526241165E1,1.598108744E1
3.159768194E2,-1.200503540E-1,2.851719818E0,5.085225220E0,5.831486392E0
3.161771594E2,1.480271759E0,3.567231903E0,4.896168365E0,6.236089527E0
3.163774994E2,8.226892090E-1,4.900509338E0,1.364966537E1,1.452601715E1
3.165778394E2,6.065386963E-1,1.120420074E0,6.440506897E0,6.565314876E0
3.167781793E2,-2.205663300E0,3.534899139E0,1.448807190E1,1.507530066E1
3.169785193E2,-2.903063049E0,9.265731812E-2,1.215891541E1,1.250102333E1
3.171788583E2,-3.977229309E-1,1.795366516E0,5.652395782E0,5.943997185E0
3.173791983E2,4.956193542E-1,6.762487335E0,1.080288528E1,1.275457581E1
3.175795383E2,3.266207886E0,2.648741913E0,5.156027985E0,6.653463177E0
3.177798778E2,-5.578898621E-1,4.516557770E0,4.658762054E0,6.512649159E0
3.179802178E2,-1.678908691E0,3.988455963E0,1.241518250E1,1.314774778E1
3.181805578E2,8.023315430E-2,2.155367889E0,9.234297180E0,9.482842006E0
3.183808968E2,1.678010559E-1,4.874912567E0,7.119494934E0,8.630187591E0
3.185812368E2,1.915566559E0,4.551584930E0,1.756716888E1,1.824806136E1
3.187815775E2,3.357518005E-1,2.659818878E0,2.730921021E0,3.826917213E0
3.189819175E2,-1.933529205E0,4.123774567E0,1.428329773E1,1.499188600E1
3.191822565E2,-4.464466095E0,-6.991960144E-1,1.030636780E1,1.125351277E1
3.193825965E2,-3.077600098E-1,2.798280945E0,4.379442902E0,5.206209043E0
3.195829365E2,1.554966431E0,3.963607635E0,1.120644608E1,1.198801651E1
3.197832760E2,6.325845337E-1,1.503024445E0,9.603429565E0,9.740898577E0
3.199836150E2,-8.062234497E-1,3.771706696E0,5.193599854E0,6.469099403E0
3.201839550E2,-1.139131165E0,3.821253662E0,1.480660950E1,1.533412156E1
3.203842950E2,3.724255371E-1,1.470242615E0,6.387666779E0,6.565257116E0
3.205846340E2,-2.088606720E0,3.425326996E0,1.276051437E1,1.337631751E1
3.207849747E2,-2.732417908E0,-5.884263611E-1,1.097038696E1,1.132085435E1
3.209853147E2,9.122030640E-1,3.581901398E0,2.320923615E0,4.364495214E0
3.211856537E2,-3.842808838E0,5.339696045E0,1.544622940E1,1.678885155E1
3.213859937E2,-1.715732117E0,2.373464355E0,6.118825836E0,6.783590447E0
3.215863337E2,1.036444702E0,5.347779236E0,6.511609039E0,8.489641492E0
3.217866723E2,1.090033264E0,5.578898621E0,1.086994583E1,1.226654005E1
3.219870123E2,8.677455139E-1,3.777544556E0,7.209757233E0,8.185561954E0
3.221873523E2,-1.285526733E0,4.073778534E0,9.857451324E0,1.074325822E1
3.223876923E2,-2.432890778E0,-2.947370911E-1,1.759575943E1,1.776560096E1
3.225880323E2,-1.423988800E0,2.087109833E0,5.160219269E0,5.745575207E0
3.227883710E2,-5.281018066E-1,4.326303406E0,9.749226379E0,1.067910145E1
3.229887110E2,-9.342073059E-1,1.134640503E0,9.045689392E0,9.164313883E0
3.231890510E2,-9.205856323E-2,3.381617889E0,3.708837433E0,5.019889384E0
3.233893900E2,-2.222727814E0,4.272565155E0,1.298699341E1,1.385125733E1
3.235897300E2,6.483018494E-1,1.337768097E0,6.708300018E0,6.871041253E0
3.237900690E2,3.007246399E-1,3.458857269E0,6.237229614E0,7.138428551E0
3.239904090E2,1.091380463E0,5.211263123E0,1.216639984E1,1.328042393E1
3.241907480E2,1.006506958E0,1.988165588E0,4.536915436E0,5.054647400E0
3.243910870E2,-2.656974792E-1,4.184099121E0,1.313743057E1,1.379019081E1
3.245914270E2,-3.978426819E0,-2.660567322E0,1.497366211E1,1.571995723E1
3.247917662E2,-1.063089294E0,1.662143555E0,5.509293365E0,5.851939288E0
3.249921062E2,2.627935181E0,3.188070374E0,9.271120605E0,1.015004992E1
3.251924452E2,-4.938230896E-1,-1.244811401E0,1.099044525E1,1.107173444E1
3.253927852E2,1.505419464E0,3.628005524E0,2.974913635E0,4.927354562E0
3.255931242E2,-9.520202637E-2,3.527564392E0,1.525896881E1,1.566170180E1
3.257934635E2,-6.735992432E-2,-1.282832336E-1,5.492079163E0,5.493990123E0
3.259938035E2,5.239105225E0,1.748963013E0,6.414610748E0,8.464887845E0
3.261941425E2,1.944905548E0,2.718945923E0,2.047202820E1,2.074317389E1
3.263944815E2,-6.014492798E-1,2.707868958E0,5.788612518E0,6.418904144E0
3.265948215E2,1.900747375E0,4.005670166E0,9.243877258E0,1.025219493E1
3.267951600E2,-1.015188904E0,4.827610931E0,1.364367783E1,1.450814876E1
3.269955000E2,2.110161896E0,9.653425598E-1,6.465504913E0,6.869310247E0
3.271958390E2,2.235900421E0,3.142115936E0,1.054482193E1,1.122788550E1
3.273961780E2,2.568957825E0,4.430786133E-2,1.085288132E1,1.115287140E1
3.275965180E2,1.965113525E0,1.629960480E0,4.978646851E0,5.595119909E0
3.277968572E2,1.265318756E0,3.103945312E0,1.216744766E1,1.262070880E1
3.279971962E2,-1.431173859E0,1.598525848E0,8.352480927E0,8.623658222E0
3.281975362E2,2.872975616E0,2.918181610E0,7.942184143E0,8.935774268E0
3.283978752E2,-1.682201843E0,3.801494751E0,1.323562637E1,1.387310242E1
3.285982152E2,5.960604858E-1,1.650467834E0,6.712191925E0,6.937784417E0
3.287985540E2,1.171314240E0,-3.329077148E-1,1.170490952E1,1.176808019E1
3.289988930E2,1.326691132E0,-1.570683746E0,1.222013809E1,1.239188976E1
3.291992330E2,1.258133698E0,1.914369049E0,8.368647308E0,8.676518140E0
3.293995720E2,1.007255402E0,2.879711609E0,1.108998825E1,1.150196252E1
3.295999120E2,5.225633240E-1,1.488055573E0,5.322032776E0,5.550803066E0
3.298002508E2,3.561094666E-1,2.715802460E0,6.982080688E0,7.500123179E0
3.300005898E2,-6.593788147E-1,3.434907074E0,1.357586884E1,1.401918620E1
3.302009298E2,-1.060544586E0,4.790039062E-1,6.750661926E0,6.850228902E0
3.304012688E2,1.598376160E0,2.798580322E0,1.251277954E1,1.292116520E1
3.306016078E2,-1.243164825E0,1.220112762E0,1.446052917E1,1.456506224E1
3.308019487E2,8.102650452E-1,5.507048035E-1,6.807693329E0,6.877826232E0
3.310022877E2,1.219514008E0,8.520281982E-1,1.388018600E1,1.395968230E1
3.312026267E2,1.351539459E0,-3.105442200E0,1.348605560E1,1.390482384E1
3.314029667E2,5.935157776E-1,2.715203705E0,4.246219940E0,5.074936051E0
3.316033057E2,1.920805664E0,3.675157471E0,1.187540497E1,1.257861360E1
3.318036447E2,8.496331787E-1,1.092877350E0,6.836134186E0,6.974882655E0
3.320039847E2,7.348219299E-1,2.531385956E0,7.382797394E0,7.839233093E0
3.322043237E2,-1.145418091E0,1.894460449E0,1.454929459E1,1.471675698E1
3.324046627E2,-8.080197144E-1,-6.451583862E-2,5.793851624E0,5.850279890E0
3.326050017E2,2.581381989E0,3.190764771E0,1.136257141E1,1.208108198E1
3.328053413E2,-1.034498749E0,-1.466051331E0,1.451187241E1,1.462237788E1
3.330056803E2,1.420096893E0,8.087681580E-1,6.075416107E0,6.291379975E0
3.332060193E2,1.645827484E0,2.011816406E0,1.166973267E1,1.195570215E1
3.334063593E2,5.381309509E-1,-2.246079254E0,1.136556519E1,1.159786743E1
3.336066983E2,1.323697357E0,1.892514496E0,4.427043915E0,4.993245801E0
3.338070375E2,2.778821411E0,2.091301117E0,1.520044052E1,1.559322869E1
3.340073775E2,2.280058594E0,7.828720093E-2,6.815477142E0,7.187177802E0
3.342077165E2,1.072819061E0,3.062481537E0,6.373895416E0,7.152361616E0
3.344080555E2,3.454815674E-1,2.968776398E0,1.290421555E1,1.324582084E1
3.346083945E2,-1.160087585E-1,-9.372010803E-1,8.483757935E0,8.536155609E0
3.348087348E2,2.714754639E0,3.854933624E0,1.023601410E1,1.126971120E1
3.350090738E2,1.138831787E0,-1.473835144E0,1.375130402E1,1.387686888E1
3.352094128E2,4.002676392E-1,1.421144714E0,6.833290100E0,6.990974186E0
3.354097518E2,1.837129669E0,3.427722015E0,1.051159103E1,1.120793780E1
3.356100908E2,-7.649093628E-2,-1.540147247E0,1.071426956E1,1.082466982E1
3.358104298E2,1.055305481E0,2.324067078E0,4.114044800E0,4.841520635E0
3.360107688E2,4.808600464E0,2.715652771E0,1.595202759E1,1.688089431E1
3.362111078E2,2.398761749E0,1.758842468E-1,8.023016052E0,8.375785323E0
3.364114468E2,8.750802612E-1,1.814227295E0,6.411167908E0,6.720138398E0
3.366117858E2,4.805007935E-1,1.047371979E0,1.459240494E1,1.463783286E1
3.368121257E2,-7.117698669E-1,1.764081573E0,5.801934814E0,6.105820807E0
3.370124647E2,2.510279846E0,3.909570007E0,1.129715744E1,1.221523675E1
3.372128047E2,2.520907745E0,-2.106569366E0,1.079884369E1,1.128749908E1
3.374131437E2,3.971241760E-1,2.656974792E0,5.641618195E0,6.248606126E0
3.376134827E2,1.539398804E0,2.302811279E0,1.308773392E1,1.337764806E1
3.378138210E2,-1.258882141E0,5.188211060E-1,8.642877045E0,8.749473310E0
3.380141600E2,7.851173401E-1,2.644999695E0,5.063969421E0,5.766820521E0
3.382144990E2,2.625689850E0,3.308420105E0,1.364412689E1,1.428293000E1
3.384148380E2,1.322948914E0,2.555186462E-1,8.154742126E0,8.265307179E0
3.386151770E2,1.469194794E0,2.563419342E0,7.265591125E0,7.843370861E0
3.388155159E2,1.473236389E0,2.719095612E0,1.186178329E1,1.225829553E1
3.390158549E2,-8.803193665E-1,1.566043396E0,6.187083893E0,6.442628439E0
3.392161939E2,2.475701752E0,3.061733093E0,1.153546188E1,1.218893718E1
3.394165319E2,2.512824554E0,-2.552941132E0,1.060020676E1,1.118910984E1
3.396168709E2,-6.122268677E-2,1.864373016E0,5.729635162E0,6.025641381E0
3.398172108E2,5.077441406E-1,2.743943939E0,1.392883484E1,1.420561412E1
3.400175498E2,-2.843636627E0,1.188229065E0,1.114926498E1,1.156737945E1
3.402178888E2,1.121168518E0,2.427951050E0,4.687053223E0,5.396335151E0
3.404182278E2,1.361269226E0,4.066743164E0,1.602462662E1,1.658855365E1
3.406185668E2,-9.421408081E-1,1.147813110E0,7.927814026E0,8.065689026E0
3.408189048E2,-2.261796570E-1,2.986140289E0,7.252119141E0,7.846108787E0
3.410192428E2,-1.002465363E0,2.379751282E0,1.446067886E1,1.468943110E1
3.412195818E2,1.066831512E0,4.983137512E-1,7.478897552E0,7.571020715E0
3.414199208E2,2.196831665E0,3.976331177E0,9.022038574E0,1.010121077E1
3.416202598E2,1.038839722E0,-5.658233643E-2,1.379381561E1,1.383299457E1
3.418205998E2,-1.333427124E0,5.316943359E-1,1.091245743E1,1.100647327E1
3.420209388E2,-3.727847900E0,1.422791290E0,7.328310699E0,8.344178973E0
3.422212778E2,7.282356262E-1,3.144660645E0,1.227058319E1,1.268804278E1
3.424216158E2,3.760629730E0,-8.839118958E-1,6.976392517E0,7.974565114E0
3.426219548E2,2.954705658E0,-1.960622864E0,1.488744141E1,1.530392888E1
3.428222927E2,-2.118095398E0,1.664538574E0,6.749614105E0,7.267345275E0
3.430226317E2,-3.100053406E-1,2.463127899E0,1.197958832E1,1.223411781E1
3.432229707E2,-1.435365143E0,1.540596313E0,5.856271820E0,6.223313404E0
3.434233097E2,2.954705658E0,1.158890076E0,1.217912338E1,1.258587931E1
3.436236477E2,1.784738617E0,-1.231938171E-1,1.371897125E1,1.383512345E1
3.438239870E2,1.624721375E0,-4.935237122E-1,8.738528137E0,8.901975017E0
3.440243260E2,9.086105347E-1,2.942580872E0,1.044917084E1,1.089355435E1
3.442246650E2,2.039808197E0,-2.113754425E0,1.309596680E1,1.342136810E1
3.444250040E2,7.622149658E-1,2.070943451E0,5.569917297E0,5.991139886E0
3.446253420E2,2.259850616E0,3.409010925E0,1.397254395E1,1.455885520E1
3.448256808E2,-7.271878052E-1,8.098159790E-2,7.326664124E0,7.363108535E0
3.450260198E2,-1.698966980E-1,2.892734528E0,7.393874359E0,7.941420274E0
3.452263588E2,8.234376526E-1,1.228944397E0,1.174876831E1,1.184153329E1
3.454266968E2,-2.168540497E0,1.024768982E0,6.197562103E0,6.645486843E0
3.456270358E2,3.787124634E-2,3.921994171E0,8.262518005E0,9.146183701E0
3.458273757E2,1.998793488E0,-2.966830444E0,1.742331802E1,1.778677231E1
3.460277147E2,1.693578186E0,1.211131439E0,6.612050171E0,6.932117562E0
3.462280527E2,1.285826111E0,1.861379242E0,9.403894501E0,9.672192784E0
3.464283917E2,8.605604553E-1,-2.123783569E0,1.385414017E1,1.404237233E1
3.466287307E2,6.027964783E-1,2.119592285E0,5.095703430E0,5.551777058E0
3.468290678E2,2.469714203E0,1.858086090E0,1.443074112E1,1.475798975E1
3.470294068E2,2.209405518E-1,5.150788879E-1,4.025279388E0,4.064110621E0
3.472297458E2,-3.760180664E-1,2.005230103E0,7.330855408E0,7.609453223E0
3.474300848E2,-1.265019379E0,2.514770508E0,1.282892212E1,1.313413825E1
3.476304228E2,-9.801617432E-1,1.666035461E-1,5.137765961E0,5.233078716E0
3.478307620E2,2.818638611E0,2.861599274E0,1.187450684E1,1.253544521E1
3.480311010E2,1.888323212E0,-1.988614655E0,1.199904785E1,1.230843216E1
3.482314390E2,1.436113586E0,3.353027344E-1,7.606432343E0,7.748074802E0
3.484317780E2,3.704197083E0,1.690734100E0,1.191597061E1,1.259245859E1
3.486321170E2,-1.418300629E0,-7.768844604E-2,1.236818024E1,1.244947768E1
3.488324550E2,4.409829712E-1,1.194965057E0,4.572990417E0,4.747067392E0
3.490327940E2,2.138602753E0,2.641706543E0,1.501288055E1,1.539281708E1
3.492331320E2,1.432970123E0,3.255729675E-1,5.992937622E0,6.170470199E0
3.494334710E2,4.079017639E-1,2.484683075E0,5.591173096E0,6.131985846E0
3.496338100E2,-5.986051941E-1,2.757266235E0,1.182660645E1,1.215851411E1
3.498341477E2,-3.873944092E-1,-1.118174744E-1,4.702770538E0,4.720024186E0
3.500344867E2,1.956132202E0,3.300037537E0,9.723330231E0,1.045274374E1
3.502348247E2,3.147654419E0,-5.307962036E-1,1.206071960E1,1.247599416E1
3.504351637E2,3.926335144E-1,1.198108521E0,6.032156067E0,6.162510196E0
3.506355017E2,4.816983032E-1,8.247848511E-1,1.316572174E1,1.320032319E1
3.508358407E2,2.590513000E0,-1.697470093E0,1.245874191E1,1.283792866E1
3.510361787E2,6.396199036E-1,1.812131653E0,5.248535614E0,5.589280888E0
3.512365177E2,3.670816498E0,2.935545502E0,1.200443665E1,1.289181214E1
3.514368557E2,3.071612549E-1,-2.213896179E-1,5.914051666E0,5.926159676E0
3.516371947E2,-4.031117249E-1,7.253915405E-1,9.543404388E0,9.579418525E0
3.518375333E2,-4.664749603E0,5.493576050E-1,1.708876373E1,1.772251474E1
3.520378723E2,-1.638343048E0,7.397616577E-1,3.070115662E0,3.557671349E0
3.522382103E2,6.098917236E0,3.448229370E0,1.209559708E1,1.397821683E1
3.524385493E2,4.321962433E0,-1.037342834E-1,1.226908630E1,1.300848180E1
3.526388873E2,7.351213074E-1,-1.077459412E0,5.052293701E0,5.217949191E0
3.528392265E2,2.953358459E-1,8.205935669E-1,1.742122238E1,1.744303833E1
3.530395645E2,2.899470520E-1,-5.942642212E0,1.023122406E1,1.183541345E1
3.532399035E2,-7.080276489E-2,2.925067291E0,5.606291656E0,6.323886291E0
3.534402415E2,1.069226532E0,1.481469269E0,1.283176620E1,1.296118129E1
3.536405805E2,-9.924362183E-2,1.603166199E-1,4.252057800E0,4.256236160E0
3.538409178E2,6.891668701E-1,1.538051605E0,6.866970062E0,7.070773052E0
3.540412558E2,-1.775906982E0,1.284478912E0,1.433763474E1,1.450418910E1
3.542415948E2,-1.752405853E0,-8.178991699E-1,5.189558258E0,5.538176617E0
3.544419328E2,1.200353851E0,2.153421936E0,8.225694580E0,8.587207155E0
3.546422718E2,-4.575984192E-1,1.441502380E-1,1.633118912E1,1.633823471E1
3.548426107E2,1.035097504E0,-1.140628052E-1,8.067623291E0,8.134554858E0
3.550429497E2,-1.281784515E0,1.777104492E0,9.382339325E0,9.634799589E0
3.552432877E2,-2.791694641E-1,-6.571334839E-1,1.370385269E1,1.372243924E1
3.554436267E2,1.044677582E0,1.344504089E0,4.373754730E0,4.693481963E0
3.556439647E2,9.383985901E-1,2.186353455E0,1.248269211E1,1.270741262E1
3.558443022E2,1.314416656E0,-4.167333984E0,1.324625427E1,1.394839116E1
3.560446412E2,9.761201477E-1,1.058598633E0,7.378157043E0,7.517356115E0
3.562449792E2,-7.349716187E-1,1.431024170E0,1.081830322E1,1.093726191E1
3.564453182E2,-8.217910767E-1,-5.221142578E-1,7.761210480E0,7.822041420E0
3.566456562E2,1.033450928E0,7.282356262E-1,6.336622925E0,6.461512055E0
3.568459942E2,5.554050293E0,1.112785950E0,1.464823883E1,1.570530700E1
3.570463332E2,6.514453125E-1,1.789079590E0,5.084776154E0,5.429561244E0
3.572466712E2,-5.047653351E0,2.391726379E0,4.481829987E0,7.161421608E0
3.574470092E2,-1.958527222E0,4.237537994E0,1.247011826E1,1.331526967E1
3.576473482E2,-2.486179962E0,2.418071594E0,7.294630737E0,8.077115737E0
3.578476859E2,-1.677711182E0,3.143912201E0,8.542735291E0,9.256199273E0
3.580480239E2,-3.858975220E-1,3.576213226E0,1.328891556E1,1.376711642E1
3.582483619E2,-2.540217590E-1,2.518213348E0,3.763473816E0,4.535378781E0
3.584487009E2,-2.181114349E0,1.833237762E0,1.468566101E1,1.495950065E1
3.586490389E2,-3.397634583E0,3.472778320E-2,1.129730713E1,1.179721472E1
3.588493767E2,-8.005352783E-1,7.197033691E-1,5.094954987E0,5.207436604E0
3.590497147E2,-3.435805206E0,3.008294220E0,1.330059128E1,1.406272804E1
3.592500537E2,-2.699037323E0,-2.457439728E0,1.183064804E1,1.238095495E1
3.594503917E2,-2.349214783E0,1.926194458E0,7.031028900E0,7.659269063E0
3.596507297E2,-1.741927643E0,1.821562042E0,1.341495346E1,1.364966580E1
3.598510697E2,-1.066831512E0,1.855840759E0,8.923393707E0,9.176558704E0
3.600514077E2,6.475534058E-1,2.613415375E0,4.526586914E0,5.266806853E0
3.602517457E2,-3.170407104E-1,3.784130859E0,1.290960434E1,1.345652427E1
3.604520837E2,3.698808289E-1,1.784738617E0,7.430398407E0,7.650681293E0
3.606524217E2,-4.732708282E0,1.199904785E0,7.593409424E0,9.027633458E0
3.608527588E2,-4.148473206E0,2.572250977E0,1.582509155E1,1.656079188E1
3.610530978E2,-2.312990112E0,4.640350342E-3,7.154073029E0,7.518690424E0
3.612534358E2,1.176553345E-1,2.363135834E0,1.253972351E1,1.276099210E1
3.614537738E2,7.075785828E-1,1.275497589E0,8.212072906E0,8.340605672E0
3.616541118E2,-2.586621094E-1,2.417622528E0,6.215225372E0,6.673891758E0
3.618544507E2,-2.448608093E0,3.989803162E0,9.960736542E0,1.100592946E1
3.620547887E2,-5.288502502E-1,2.509082336E0,7.910150757E0,8.315387048E0
3.622551267E2,2.305206299E-1,3.138822784E0,8.222551117E0,8.804299808E0
3.624554647E2,-5.318440247E-1,4.346361694E0,1.085003723E1,1.170030025E1
3.626558027E2,1.092577972E0,3.632196808E0,7.144642639E0,8.089035710E0
3.628561403E2,-9.135502625E-1,3.792962494E0,6.126909027E0,7.263618436E0
3.630564783E2,1.530716858E0,6.300098877E0,1.280122971E1,1.434941887E1
3.632568163E2,-1.920506287E-1,2.520009613E0,6.209686890E0,6.704292890E0
3.634571543E2,9.250762939E-2,3.223696289E0,5.147645416E0,6.074457075E0
3.636574923E2,1.263672180E0,3.949387207E0,1.190564209E1,1.260709484E1
3.638578297E2,7.409591675E-1,1.356479187E0,7.758366394E0,7.910834683E0
3.640581677E2,-2.362686768E0,2.585722961E0,7.589816895E0,8.359041362E0
3.642585057E2,-2.859653320E0,7.857160950E-1,1.409468994E1,1.440330696E1
3.644588437E2,-6.325845337E-1,2.275268555E-2,7.810907135E0,7.836513967E0
3.646591817E2,-6.195616150E-1,1.734293518E0,1.094419144E1,1.109806095E1
3.648595190E2,8.574169922E-1,6.963519287E-1,1.220262451E1,1.225251464E1
3.650598570E2,3.112028503E-1,3.121009827E0,8.974287872E0,9.506597308E0
3.652601950E2,-8.300239563E-1,2.898572388E0,1.026086243E1,1.069466967E1
3.654605330E2,-1.040037231E0,1.042282562E0,1.217268677E1,1.226141646E1
3.656608710E2,2.058219910E-1,2.259251862E0,6.574927368E0,6.955303844E0
3.658612090E2,1.265318756E0,3.181933136E0,1.234976852E1,1.281571350E1
3.660615470E2,7.030879211E-1,-2.103126526E-1,9.325307922E0,9.354139826E0
3.662618840E2,-5.183720398E-1,2.073188782E0,5.020260315E0,5.456174019E0
3.664622220E2,-2.228116608E0,2.608475647E0,1.353320755E1,1.396124477E1
3.666625600E2,-2.579885101E0,5.298980713E-2,1.161374908E1,1.189696528E1
3.668628982E2,8.333171082E-1,1.510209503E0,6.928192749E0,7.139678208E0
3.670632352E2,3.507655792E0,1.517993317E0,8.370293884E0,9.201617932E0
3.672635732E2,-1.725910950E0,3.366798706E0,1.101484451E1,1.164649740E1
3.674639112E2,-2.889141998E0,6.813830566E-1,7.269632721E0,7.852323494E0
3.676642492E2,-1.204245758E0,4.531077576E-1,8.895701294E0,8.988271024E0
3.678645865E2,3.764671326E-1,2.788251801E0,7.689808960E0,8.188359875E0
3.680649245E2,-4.640350342E-1,4.150568848E0,1.103714813E1,1.180089781E1
3.682652625E2,-1.125808868E0,-8.828640747E-1,8.207881622E0,8.331639413E0
3.684656005E2,-2.136058044E-1,3.487747192E0,8.427624664E0,9.123314387E0
3.686659385E2,-1.188229065E0,3.286415863E0,1.117935242E1,1.171282792E1
3.688662753E2,-2.303410034E0,-9.247769165E-1,9.754615173E0,1.006545713E1
3.690666133E2,-1.390308838E0,1.630559235E0,9.102421417E0,9.351243647E0
3.692669513E2,-4.239184570E-1,3.482358398E0,9.320966949E0,9.959264619E0
3.694672883E2,-1.095122681E0,-5.725593567E-1,7.799231415E0,7.896526361E0
3.696676263E2,-6.426136780E-1,3.332519989E0,6.589746552E0,7.412381630E0
3.698679636E2,-1.522633667E0,2.588567047E0,1.060739182E1,1.102433008E1
3.700683016E2,-2.850671997E0,-5.891748047E-1,6.680308228E0,7.286973020E0
3.702686386E2,1.499880981E-1,1.758842468E0,8.054001617E0,8.245178307E0
3.704689766E2,-1.700164490E0,2.840792542E0,1.322993820E1,1.363788570E1
3.706693146E2,1.312770081E-1,1.468745728E0,8.206684113E0,8.338112004E0
3.708696522E2,-4.393363953E-1,4.246968384E0,5.508544922E0,6.969492383E0
3.710699902E2,-9.779164124E-1,3.441792755E0,1.296663574E1,1.345124159E1
3.712703282E2,5.369334412E-1,2.241588593E0,8.330326996E0,8.643342224E0
3.714706652E2,6.544390869E-1,3.158282318E0,6.773264923E0,7.502010093E0
3.716710032E2,3.362308044E0,3.034040680E0,1.199320999E1,1.281981295E1
3.718713397E2,-1.002315674E0,1.668131104E0,6.315067749E0,6.608129748E0
3.720716777E2,-9.607022095E-1,3.682492218E0,1.028451324E1,1.096607999E1
3.722720147E2,-1.628762970E0,-5.987548828E-4,1.585951996E1,1.594293707E1
3.724723527E2,-1.592388611E0,1.537452850E0,6.929240570E0,7.274189827E0
3.726726907E2,1.110390930E0,3.801195374E0,9.495354309E0,1.028804198E1
3.728730283E2,3.188369751E-1,-2.272274780E-1,1.011371841E1,1.012129387E1
3.730733663E2,-1.229692841E0,3.021317139E0,5.706433411E0,6.572966150E0
3.732737033E2,-1.983674927E0,3.200195160E0,1.149833908E1,1.209909157E1
3.734740413E2,-2.386936340E0,-1.353186035E0,8.224347382E0,8.669975051E0
3.736743783E2,2.225871277E-1,1.841919708E0,7.360643463E0,7.590868556E0
3.738747156E2,3.137475586E-1,5.211861877E0,1.205817490E1,1.314007320E1
3.740750536E2,6.930587769E-2,2.037862244E0,6.767876129E0,7.068368491E0
3.742753906E2,-1.906585236E0,3.773053894E0,7.700287170E0,8.784385320E0
3.744757286E2,-2.077679443E-1,4.035907288E0,1.249975662E1,1.313680444E1
3.746760656E2,-1.391656036E0,2.534080353E0,8.453820190E0,8.934503096E0
3.748764022E2,-1.355581055E0,4.482578430E0,8.810079346E0,9.977404846E0
3.750767402E2,-1.811682587E0,3.312162323E0,1.227821732E1,1.284551414E1
3.752770772E2,-1.756148071E0,4.669839020E0,5.921087036E0,7.742785300E0
3.754774152E2,-2.060614929E0,5.246739349E0,9.935139771E0,1.142284597E1
3.756777522E2,-6.208190002E0,4.586462402E-1,9.161398773E0,1.107624517E1
3.758780904E2,-1.447040863E0,3.717818756E0,6.059848480E0,7.255195874E0
3.760784284E2,-1.190923462E0,7.010072479E0,9.685458984E0,1.201530402E1
3.762787654E2,-1.514400787E0,2.994373169E0,7.070995789E0,7.826791288E0
3.764791024E2,-1.723964996E0,4.806654510E0,7.024292908E0,8.684277388E0
3.766794404E2,-4.650080109E0,5.224585419E0,1.228001358E1,1.413217150E1