"time","Gyroscope x","Gyroscope y","Gyroscope z","abs Gyroscope"
1.765348440E2,6.838306189E-1,-8.934046030E-1,2.390509471E-2,1.125329975E0
1.767352000E2,4.377468824E-1,9.144148231E-2,6.017202139E-2,4.512256087E-1
1.769355560E2,5.747704506E-1,-1.577411532E0,-3.143644035E-1,1.708043674E0
1.771359110E2,-4.263767004E-1,-1.680084765E-1,-2.360728085E-1,5.155136368E-1
1.773362670E2,-4.661583900E-1,4.122145474E-1,-2.041706890E-1,6.549123208E-1
1.775366223E2,4.892757535E-2,6.818163991E-1,-9.800813347E-2,6.905599930E-1
1.777369783E2,-1.292227954E-1,8.323265910E-1,6.909775138E-1,1.089456750E0
1.779373343E2,3.377068415E-2,1.163352013E0,3.457493782E-1,1.214113255E0
1.781376893E2,1.112326860E0,-7.730068564E-1,-1.223582268E0,1.825366870E0
1.783380453E2,-2.184212506E-1,-1.051736951E0,-1.360472441E-1,1.082759119E0
1.785383998E2,7.122916579E-1,3.011833429E-1,1.602327675E-1,7.897755072E-1
1.787387548E2,2.413775027E-1,4.699422717E-1,-2.584429979E-1,5.881340160E-1
1.789391108E2,-5.992565155E-1,8.618370444E-2,7.095473409E-1,9.327343841E-1
1.791394658E2,7.415719032E-1,-4.099444747E-1,-4.876403809E-1,9.776382261E-1
1.793398218E2,-3.470753729E-1,9.396699071E-1,-1.557756364E-1,1.013758797E0
1.795401770E2,-1.462978274E-1,8.351314068E-1,1.342254132E-1,8.584078183E-1
1.797405320E2,-1.304537952E-1,6.188931465E-1,8.344350457E-1,1.047057193E0
1.799408880E2,7.003164887E-1,5.144746304E-1,2.940446138E-1,9.173819077E-1
1.801412430E2,-2.696746401E-2,-1.078048229E0,-8.996803313E-2,1.082131912E0
1.803415980E2,5.666568279E-1,-4.120910466E-1,-9.695948362E-1,1.196257973E0
1.805419534E2,-1.223592013E-1,-5.813201070E-1,-5.533760041E-2,5.966297771E-1
1.807423094E2,-1.873104721E-1,-3.777656332E-2,-5.917803198E-2,2.000357997E-1
1.809426644E2,-1.357345283E-1,2.921818495E-1,9.855954647E-1,1.036914903E0
1.811430194E2,-4.476245046E-1,3.910019100E-1,5.208312273E-1,7.902628411E-1
1.813433744E2,7.211989760E-1,3.446815908E-1,-4.770148396E-1,9.308472051E-1
1.815437290E2,-5.079960078E-2,-5.316877365E-1,-5.047116876E-1,7.348512340E-1
1.817440840E2,2.359824032E-1,-5.947102308E-1,-8.119264990E-2,6.449497652E-1
1.819444390E2,4.486030638E-1,6.553053856E-2,2.387967706E-1,5.124088777E-1
1.821447940E2,-1.852737814E-1,-1.011749655E-1,5.075734258E-1,5.497213206E-1
1.823451490E2,1.292156577E-1,-1.335045457E0,3.893423080E-1,1.396649738E0
1.825455042E2,-3.313739896E-1,2.325008065E-1,-1.039214611E0,1.115272323E0
1.827458592E2,-7.567784935E-2,8.226357102E-1,-2.106630504E-1,8.525465204E-1
1.829462142E2,-1.244427562E0,6.610706449E-1,9.410207272E-1,1.694442198E0
1.831465692E2,2.742432058E-1,-7.114237547E-2,4.355688989E-1,5.196064272E-1
1.833469242E2,-1.538809538E-1,2.267959714E-1,1.972573698E-1,3.376777021E-1
1.835472792E2,9.757078290E-1,-9.877002239E-1,-1.423439503E0,1.988400744E0
1.837476342E2,-5.117183924E-2,2.862758934E-1,-2.990190387E-1,4.171148880E-1
1.839479882E2,-5.114012957E-1,-6.138125658E-1,-2.383589149E-1,8.337338445E-1
1.841483432E2,3.005627096E-1,4.595181048E-1,4.373673499E-1,7.019864883E-1
1.843486982E2,-3.388563097E-1,2.903355658E-1,4.663100839E-1,6.454172555E-1
1.845490537E2,-1.428307056E0,-2.206023932E0,-1.388408840E-1,2.631706561E0
1.847494077E2,-1.799180731E-2,9.642241001E-1,-3.243071437E-1,1.017461028E0
1.849497627E2,-3.950513899E-1,-5.699005723E-2,4.205437899E-1,5.798021615E-1
1.851501177E2,5.313405395E-1,-3.766852319E-1,8.552502990E-1,1.075019817E0
1.853504717E2,3.937098980E-1,5.886967778E-1,7.461145520E-1,1.028716824E0
1.855508262E2,-3.480215371E-1,-4.823030531E-1,-3.480543792E-1,6.891132536E-1
1.857511812E2,1.362023354E0,-8.731803298E-1,-1.941068649E0,2.526914918E0
1.859515352E2,-1.584331542E-1,-8.264448643E-1,1.230296791E-1,8.504401684E-1
1.861518902E2,-3.379292786E-1,-5.107372999E-1,-1.825049371E-1,6.390280424E-1
1.863522442E2,-4.877082407E-1,-1.287243217E-1,1.466846466E0,1.551150487E0
1.865525989E2,-5.425990820E-1,7.136040926E-1,5.928146839E-1,1.074743604E0
1.867529529E2,5.413609147E-1,7.136033177E-1,-4.054434001E-1,9.832017523E-1
1.869533079E2,2.932885885E-1,2.253411897E-2,-8.843406439E-1,9.319787321E-1
1.871536619E2,4.755426645E-1,-1.344472766E-1,-6.554841399E-1,8.208997220E-1
1.873540159E2,-9.755342454E-2,-4.712862074E-1,2.046920918E-2,4.817118937E-1
1.875543712E2,9.239383787E-2,2.384542376E-1,5.196402073E-1,5.791571373E-1
1.877547252E2,3.589037061E-1,-5.408831835E-1,-2.248926163E-1,6.869812059E-1
1.879550792E2,3.188315630E-1,-3.497849703E-1,-6.954913139E-1,8.412557630E-1
1.881554342E2,-1.462125033E-1,-1.356729716E-1,-1.501915753E-1,2.496853232E-1
1.883557882E2,-1.605317146E-1,-5.672834069E-2,8.209086955E-2,1.890170545E-1
1.885561432E2,1.426239312E-1,1.493846029E-1,3.721055090E-1,4.255817844E-1
1.887564972E2,-8.180032969E-1,-3.050699532E-1,1.077346429E-1,8.796611980E-1
1.889568512E2,1.281546593E0,1.817916930E-1,-5.322703123E-1,1.399543345E0
1.891572062E2,-5.164541677E-2,-6.588397622E-1,-3.577564061E-1,7.514830187E-1
1.893575602E2,-2.838307023E-1,3.379876912E-1,-6.935515255E-2,4.467725194E-1
1.895579142E2,7.664601207E-1,-4.978109598E-1,-2.174542099E-1,9.394483497E-1
1.897582692E2,1.368726194E-1,1.753491163E-1,3.068330884E-1,3.789828105E-1
1.899586232E2,2.434433848E-1,-5.701053739E-1,-4.030795395E-2,6.212161862E-1
1.901589772E2,-2.391478270E-1,4.311851859E-1,-6.478957534E-1,8.141751992E-1
1.903593322E2,-5.280418396E-1,2.966715395E-1,2.023272514E-1,6.385753702E-1
1.905596858E2,-7.893778086E-1,3.393053114E-1,1.015569806E0,1.330273449E0
1.907600398E2,1.331309974E-1,5.942637324E-1,6.332371831E-1,8.785570990E-1
1.909603948E2,-9.378678352E-2,-1.877207905E-1,1.562813669E-1,2.616465586E-1
1.911607488E2,1.054193854E0,-1.035339355E0,-1.398662329E0,2.034578230E0
1.913611028E2,-2.472000569E-1,-2.933259308E-1,-4.441529214E-1,5.868728887E-1
1.915614577E2,-4.916552082E-2,-6.341480613E-1,-8.745540679E-2,6.420354042E-1
1.917618117E2,-4.115904272E-1,1.059034467E0,5.701162815E-1,1.271217234E0
1.919621657E2,-4.029164314E-1,3.248761222E-2,6.273258924E-1,7.462806918E-1
1.921625207E2,-2.763638794E-1,6.724944711E-1,2.535594106E-1,7.700118065E-1
1.923628747E2,1.221915483E-1,-1.592503935E-1,-7.314495444E-1,7.584918578E-1
1.925632294E2,-3.748176992E-1,-1.223857477E-1,2.065772265E-1,4.451300140E-1
1.927635844E2,1.487320215E-1,-1.365210652E0,6.041048765E-1,1.500287986E0
1.929639384E2,2.240382433E-1,2.261716843E0,5.484374613E-2,2.273447613E0
1.931642924E2,-3.583095670E-1,-1.288053870E0,1.200819910E-1,1.342344294E0
1.933646474E2,-1.085410237E0,-6.828328371E-1,-7.381521165E-2,1.284455041E0
1.935650018E2,-6.835197210E-1,-1.591729224E-1,-7.291597873E-2,7.055862585E-1
1.937653558E2,-5.235662460E-1,-1.140159070E-1,1.035869002E0,1.166252902E0
1.939657098E2,8.472261429E-1,4.258026779E-1,-1.093030795E-1,9.544879365E-1
1.941660648E2,2.612706125E-1,6.847276688E-1,-2.439484298E-1,7.724151408E-1
1.943664188E2,8.018919230E-1,-7.465736270E-1,-8.886702061E-1,1.410722358E0
1.945667723E2,-5.219556764E-2,-6.363196969E-1,-5.286032557E-1,8.288839098E-1
1.947671263E2,-1.128232107E-1,-6.350290775E-1,-2.917189300E-1,7.078777721E-1
1.949674803E2,2.371328324E-1,5.382944345E-1,5.174666643E-1,7.834313162E-1
1.951678343E2,-6.726580262E-1,2.010580599E-1,8.549652100E-1,1.106281462E0
1.953681893E2,4.522982240E-1,5.236417651E-1,-6.485049129E-1,9.483316949E-1
1.955685433E2,-4.983633757E-1,1.131552815E0,-7.792999744E-1,1.461535589E0
1.957688973E2,-1.212449744E-2,-1.394063830E-1,9.190142155E-2,1.674127067E-1
1.959692513E2,-2.099744976E-1,3.397459388E-1,3.311901987E-1,5.188482825E-1
1.961696053E2,5.050830841E-1,8.490599990E-1,5.188583732E-1,1.115896866E0
1.963699593E2,-1.613677293E-1,-3.548375368E-1,-1.665502936E-1,4.238964754E-1
1.965703130E2,-4.148689508E-1,-1.492154151E-1,-9.219822884E-1,1.021974964E0
1.967706670E2,-1.747418493E-1,-1.724826545E-1,-4.954426885E-1,5.529452392E-1
1.969710200E2,-5.860893726E-1,-2.609834671E-1,7.408477664E-1,9.800349666E-1
1.971713740E2,3.673850596E-1,2.530234456E-1,1.371468306E-1,4.666925103E-1
1.973717280E2,-1.193510532E0,2.344713211E-1,1.116527915E0,1.651084122E0
1.975720818E2,3.441148996E-1,-3.466455340E-1,-1.533493251E-1,5.119513707E-1
1.977724358E2,-2.042745948E-1,-4.817326665E-1,-2.140548229E-1,5.653440893E-1
1.979727898E2,5.516358614E-1,-9.834097624E-1,-2.901082337E-1,1.164285047E0
1.981731438E2,-4.734488726E-1,6.648367643E-1,1.419756841E-2,8.163108042E-1
1.983734968E2,-5.147757530E-1,-1.622923613E-1,8.331708908E-1,9.927268606E-1
1.985738508E2,-5.462318063E-1,-8.618193865E-1,-6.385454535E-2,1.022340082E0
1.987742048E2,5.089407563E-1,6.132658720E-1,-8.512759805E-1,1.166098846E0
1.989745578E2,-7.254247069E-1,-1.078238487E-1,-7.416065782E-4,7.333945308E-1
1.991749118E2,-1.147935838E-1,7.893670797E-1,7.266935706E-1,1.079055837E0
1.993752658E2,-2.244697064E-1,1.448681112E-2,9.925205112E-1,1.017690268E0
1.995756189E2,1.819970757E-1,-9.956732392E-2,-3.989652395E-1,4.496774954E-1
1.997759729E2,1.640345097E0,-3.174015284E-1,-1.321834445E0,2.130427672E0
1.999763269E2,-4.397796094E-1,1.153359935E-1,-4.146355689E-1,6.153301157E-1
2.001766799E2,-3.441707790E-2,1.411826313E-1,-1.561827809E-1,2.133310377E-1
2.003770339E2,7.437665462E-1,7.664785534E-2,2.293031216E-1,7.820763969E-1
2.005773873E2,-4.818375707E-1,-4.401695728E-1,7.117472887E-1,9.656608620E-1
2.007777413E2,-8.119500279E-1,2.508779764E-1,-3.807952702E-1,9.312398428E-1
2.009780953E2,-3.147659004E-1,6.565603614E-1,-4.482983649E-1,8.550558485E-1
2.011784483E2,-1.576230377E-1,1.550628394E-1,1.547899544E-1,2.699063470E-1
2.013788023E2,1.053975672E-1,3.418212831E-1,1.342418551E0,1.389258077E0
2.015791554E2,1.090190649E0,1.013608575E-1,8.906833529E-1,1.411420033E0
2.017795094E2,2.787009776E-1,-5.128168315E-2,-9.158721566E-1,9.587105158E-1
2.019798624E2,8.946835995E-1,-7.498551011E-1,-8.755859137E-1,1.459243677E0
2.021802164E2,-2.471071333E-1,-1.372411847E-1,-4.108679593E-1,4.987078885E-1
2.023805694E2,9.403327852E-2,-4.148329198E-1,-2.131364346E-1,4.757685872E-1
2.025809232E2,-1.397956014E-1,2.274124026E-1,9.023959041E-1,9.410513157E-1
2.027812762E2,-9.681798220E-1,3.969228566E-1,7.872304916E-1,1.309447123E0
2.029816292E2,-2.644019425E-1,9.610356092E-1,-1.256609857E-1,1.004633522E0
2.031819832E2,-6.476383209E-1,1.060942650E0,-2.927732468E-1,1.277008565E0
2.033823362E2,-2.219944745E-1,5.095451474E-1,4.973875359E-2,5.580248629E-1
2.035826897E2,1.557288617E-1,-7.494077086E-1,-3.684772849E-1,8.494933205E-1
2.037830427E2,1.465264440E0,1.292019725E0,5.281247571E-2,1.954252800E0
2.039833957E2,-2.545963526E-1,-3.593757153E-1,-5.777385831E-1,7.264654691E-1
2.041837497E2,-9.365320206E-3,-3.287578523E-1,-8.738871813E-1,9.337281405E-1
2.043841027E2,-5.085552335E-1,-1.719457507E-1,-1.242165864E-1,5.510204416E-1
2.045844558E2,-1.351987362E0,-5.613203645E-1,8.432028890E-1,1.689361267E0
2.047848088E2,1.755277753E0,2.293173969E-1,8.334245086E-1,1.956574269E0
2.049851618E2,-9.228124022E-1,1.025424600E0,4.448177218E-1,1.449462364E0
2.051855158E2,8.935804367E-1,4.759238362E-1,2.549688220E-1,1.044029978E0
2.053858688E2,1.327978671E-1,-6.420443654E-1,-6.579093933E-1,9.288169951E-1
2.055862222E2,-3.016070127E-1,4.688141048E-1,2.784385532E-2,5.581475927E-1
2.057865752E2,-5.780299306E-1,-3.149273694E-1,2.919751704E-1,7.201023182E-1
2.059869282E2,-5.603294969E-1,-4.701372087E-1,6.329032183E-1,9.672458962E-1
2.061872812E2,-1.169367552E0,-5.858998299E-1,1.089006186E0,1.701949927E0
2.063876342E2,-3.093307018E-1,-2.619232982E-2,-5.524875596E-2,3.153156296E-1
2.065879869E2,-1.924852096E-2,1.464778036E-1,-5.582344532E-1,5.774529914E-1
2.067883399E2,-2.302448988E0,-2.586840689E-1,1.395911694E0,2.704950692E0
2.069886929E2,8.220858574E-1,7.998260260E-1,8.178482652E-1,1.408695359E0
2.071890449E2,-6.908521652E-1,-5.980534945E-3,-1.440824121E-1,7.057423202E-1
2.073893979E2,8.661050797E-1,-1.188187525E-1,-1.616331816E0,1.837602907E0
2.075897515E2,-8.811402321E-1,-7.470909357E-1,6.349249184E-2,1.156972027E0
2.077901045E2,5.344135165E-1,-2.286794335E-1,-6.406466961E-1,8.650550729E-1
2.079904565E2,7.763963938E-2,-1.431015581E-1,8.986334205E-1,9.132622810E-1
2.081908095E2,-1.061914921E0,-2.513621375E-2,2.778001726E-1,1.097938097E0
2.083911625E2,1.204036832E0,5.015991330E-1,5.995388627E-1,1.435532386E0
2.085915141E2,6.195245385E-1,-2.017508447E-1,-9.500119686E-1,1.151970832E0
2.087918671E2,-2.591817677E-1,-7.621790767E-1,9.352494031E-2,8.104560741E-1
2.089922201E2,1.777109265E0,1.374130547E-1,-4.592157900E-1,1.840619143E0
2.091925721E2,-4.241342843E-1,2.985244989E-1,5.427489057E-2,5.214906819E-1
2.093929251E2,4.412672818E-1,-4.849133790E-1,-9.667019844E-1,1.168062723E0
2.095932775E2,-2.442093045E-1,-3.412659466E-2,-4.118574858E-1,4.800306213E-1
2.097936305E2,-3.813985288E-1,3.212018013E-1,6.245892122E-2,5.025301501E-1
2.099939825E2,-4.221209288E-1,3.754226863E-1,3.862668276E-1,6.843466475E-1
2.101943345E2,4.225589335E-1,3.113197386E-1,4.631824791E-2,5.268979142E-1
2.103946875E2,-5.341626704E-2,-3.480844200E-1,-1.272089034E-1,3.744304557E-1
2.105950395E2,1.119536519E0,-4.109032154E-1,6.750971079E-2,1.194471026E0
2.107953925E2,2.885634899E-1,-9.162449837E-2,-6.031369567E-1,6.748615598E-1
2.109957445E2,-4.616652727E-1,-1.999275237E-1,1.462356150E-1,5.239185947E-1
2.111960965E2,9.158795476E-1,4.607970715E-1,-2.652266920E-1,1.059015810E0
2.113964495E2,2.221564390E-2,7.084512115E-1,-2.582265437E-1,7.543723230E-1
2.115968015E2,-8.408948779E-3,-2.054394931E-1,-7.477173805E-1,7.754723573E-1
2.117971535E2,-3.327034414E-2,3.040969074E-1,-1.232932568E0,1.270316717E0
2.119975065E2,-8.366377354E-1,-3.357071877E-1,-3.236959875E-1,9.578314614E-1
2.121978585E2,-9.939710796E-2,3.415036201E-1,3.888437450E-1,5.269762477E-1
2.123982105E2,-1.376477629E-1,6.542568803E-1,4.169769585E-1,7.879522549E-1
2.125985622E2,-6.699556112E-1,-1.048627019E0,2.451894879E-1,1.268296902E0
2.127989152E2,4.937198758E-2,-7.096472383E-1,-9.256314635E-1,1.167403273E0
2.129992672E2,-3.075901568E-1,1.017733514E-1,9.919686317E-1,1.043537870E0
2.131996192E2,2.127127349E-1,4.065696299E-1,-1.012392402E0,1.111523255E0
2.133999712E2,-1.084304333E0,1.776192069E0,1.656931162E0,2.660074252E0
2.136003232E2,-2.769215405E-1,1.849869490E0,5.829148889E-1,1.959207094E0
2.138006752E2,3.819664419E-1,-1.114129543E0,-1.003331900E0,1.547209715E0
2.140010282E2,-2.055658251E-1,-6.971979886E-2,-7.522645593E-1,7.829560179E-1
2.142013802E2,1.268927604E-1,-5.368927717E-1,3.019361384E-2,5.525099775E-1
2.144017322E2,1.263068616E-1,3.067240715E-1,4.730901718E-1,5.777952838E-1
2.146020842E2,-6.094624400E-1,5.291697979E-1,1.270248532E0,1.504990523E0
2.148024362E2,6.116386056E-1,2.011415660E-1,7.713410854E-1,1.004752101E0
2.150027882E2,-5.679965615E-1,-2.059331894E0,-3.000961542E-1,2.157203200E0
2.152031402E2,-1.416456997E-1,1.126738310E0,-7.258976698E-1,1.347787131E0
2.154034922E2,-2.922867835E-1,-4.613097310E-1,-7.656692863E-1,9.404720557E-1
2.156038439E2,1.281010151E0,1.069214940E0,1.412976503E0,2.186483522E0
2.158041959E2,-6.752987504E-1,1.407253504E0,2.685191333E-1,1.583822386E0
2.160045469E2,4.966866598E-2,-2.706013992E-2,-1.483104676E-1,1.587300298E-1
2.162048989E2,5.793352723E-1,2.039150298E-1,-1.183796115E-2,6.142888852E-1
2.164052509E2,-4.746040404E-1,-5.754608288E-2,-3.669349551E-1,6.026622670E-1
2.166056037E2,5.455662608E-1,1.283022910E-1,2.386599183E-1,6.091490618E-1
2.168059547E2,-9.715361148E-2,4.837726355E-1,7.875185013E-1,9.293331894E-1
2.170063067E2,-1.114227995E-2,-7.078778744E-1,6.362553239E-1,9.518592714E-1
2.172066587E2,-9.057008624E-1,-1.140246391E0,-6.751706600E-1,1.605089189E0
2.174070097E2,1.404595077E-1,1.236845031E-1,-4.112392962E-1,4.518235146E-1
2.176073608E2,7.083430886E-1,-2.302777171E-1,2.253567576E-1,7.781795592E-1
2.178077128E2,8.971288800E-1,4.374265671E-1,-6.697883457E-2,1.000334141E0
2.180080638E2,3.385871947E-1,9.258983135E-1,5.985243320E-1,1.153325779E0
2.182084158E2,1.386895180E-1,4.528382793E-3,5.382984281E-1,5.558961111E-1
2.184087668E2,2.715670317E-2,-1.758522242E-1,-3.786377907E-1,4.183635594E-1
2.186091182E2,-7.285702825E-1,-8.304155469E-1,-1.143919587E0,1.590269367E0
2.188094702E2,-2.707873583E-1,-1.425635219E-1,8.995947428E-3,3.061553172E-1
2.190098212E2,9.724867344E-2,1.427875042E0,8.662893176E-1,1.672943998E0
2.192101732E2,-1.148055773E-2,-6.834768057E-1,-2.429924905E-1,7.254775652E-1
2.194105242E2,1.130193472E0,1.077140450E0,4.194340408E-1,1.616630369E0
2.196108755E2,-3.862716556E-1,-2.013361454E-1,-9.453088790E-2,4.457332432E-1
2.198112265E2,7.396596074E-1,-4.955667555E-1,3.955882490E-1,9.742550009E-1
2.200115785E2,6.886383891E-1,2.618732452E-1,1.093633056E0,1.318648432E0
2.202119295E2,-2.548137903E-1,4.385755658E-1,8.890024424E-1,1.023525250E0
2.204122805E2,-2.727071941E-1,5.151711777E-2,-2.149864882E-1,3.510589940E-1
2.206126318E2,4.578731954E-1,2.460941523E-1,-5.784875751E-1,7.777262175E-1
2.208129828E2,-8.993111849E-1,-1.485898495E0,-3.734356761E-1,1.776544159E0
2.210133338E2,-1.358939856E-1,-1.209383830E-1,-7.528523207E-1,7.745191312E-1
2.212136848E2,1.338958144E0,2.246169932E-2,5.317388177E-1,1.440853778E0
2.214140358E2,-1.432131417E-2,3.211171925E-1,3.073874116E-1,4.447565313E-1
2.216143861E2,5.611085296E-1,6.525671482E-1,1.000346541E-1,8.664257596E-1
2.218147371E2,1.350170933E-2,-1.137897372E-1,-3.667548597E-1,3.842388939E-1
2.220150881E2,1.188241482E0,2.274691910E-1,2.387614399E-1,1.233153306E0
2.222154381E2,-3.466582596E-1,-5.772472918E-2,4.679995775E-1,5.852586590E-1
2.224157891E2,-6.073435545E-1,-1.107564688E0,1.293742061E0,1.808130042E0
2.226161402E2,-1.964907408E0,-5.242193341E-1,-2.179048538E0,2.980590472E0
2.228164912E2,1.738084666E-2,8.634314537E-1,-4.665434361E-1,9.815695323E-1
2.230168412E2,5.074445009E-1,-2.890940309E-1,3.226605058E-1,6.672219137E-1
2.232171922E2,1.158279061E0,1.046050310E0,6.752200723E-1,1.700515740E0
2.234175422E2,7.007914186E-1,7.873945832E-1,1.220077634E0,1.612354885E0
2.236178944E2,-4.415616989E-1,-3.316526115E-1,-3.272240460E-1,6.419079100E-1
2.238182444E2,5.261328816E-1,-8.657914996E-1,-8.287611417E-3,1.013153204E0
2.240185954E2,-1.840769768E0,-5.393750072E-1,-9.039031863E-1,2.120471576E0
2.242189454E2,-1.576078385E-1,6.864493489E-1,6.206433177E-1,9.387497362E-1
2.244192964E2,-6.892975420E-2,1.343079805E-1,1.953243166E-1,2.468633900E-1
2.246196457E2,-2.676289082E-1,-1.066074491E0,5.308479071E-2,1.100435390E0
2.248199957E2,7.504144311E-2,8.586313725E-1,-6.224423051E-1,1.063162017E0
2.250203457E2,1.733410656E-1,-4.226856530E-1,-6.254103184E-1,7.744987751E-1
2.252206957E2,2.005313188E-1,-2.900287509E-1,1.015495211E-1,3.669356775E-1
2.254210467E2,9.369620085E-1,1.485743046E0,1.393282294E0,2.242000391E0
2.256213968E2,5.025187731E-1,-2.017417252E-1,6.247921586E-1,8.267950668E-1
2.258217468E2,-2.636597753E-1,-8.028393984E-1,1.372782141E-1,8.561033143E-1
2.260220968E2,-1.369499713E-1,-5.446799099E-2,-1.394028306E0,1.401797765E0
2.262224468E2,-1.851536334E-1,1.354826838E-1,-9.764282107E-1,1.003020177E0
2.264227968E2,2.013868243E-1,-4.537679553E-1,1.993697286E-1,5.349862605E-1
2.266231460E2,-2.796357870E-1,8.992420435E-1,6.192069054E-1,1.127053512E0
2.268234960E2,-1.774730161E-2,-1.929228604E-1,-1.550952643E-1,2.481707835E-1
2.270238450E2,9.093022346E-1,3.454150259E-1,9.749453664E-1,1.377193001E0
2.272241950E2,-6.265532374E-1,7.776705176E-2,-5.358641148E-1,8.281105139E-1
2.274245450E2,-1.574188918E-1,5.015448928E-1,3.470806405E-2,5.268136641E-1
2.276248950E2,3.157592714E-1,-4.159115553E-1,7.203861475E-1,8.897429633E-1
2.278252450E2,1.570005864E-1,1.222262144E0,6.171365976E-1,1.378198648E0
2.280255940E2,-1.021737933E0,-1.781383395E0,-5.048176646E-1,2.114737828E0
2.282259440E2,4.703999460E-1,-4.413451552E-1,-5.255677104E-1,8.320355001E-1
2.284262940E2,-4.419961274E-1,-1.090789557E0,-5.717102885E-1,1.308447587E0
2.286266432E2,2.059317827E-1,-5.885679722E-1,-6.769894063E-2,6.272187047E-1
2.288269932E2,1.029778272E-1,5.306604505E-1,8.880324960E-1,1.039618517E0
2.290273422E2,-4.960413873E-1,-4.002999663E-1,-2.705328465E-1,6.924486566E-1
2.292276922E2,1.214024663E0,2.558200061E-1,6.562056541E-1,1.403533262E0
2.294280412E2,-9.183620811E-1,-2.205246985E-1,-3.952066302E-1,1.023820460E0
2.296283908E2,3.929906189E-1,-2.491998076E-1,7.713512182E-1,9.008467531E-1
2.298287398E2,-2.563202977E-1,-8.969718814E-1,-4.036856592E-1,1.016474674E0
2.300290898E2,-8.599516749E-1,-1.526728123E-1,-3.505692780E-1,9.411294754E-1
2.302294388E2,1.271272004E-1,2.974093258E-1,-1.016242385E0,1.066471855E0
2.304297878E2,-1.281848997E-1,4.164391011E-2,-1.052688599E0,1.061281711E0
2.306301383E2,3.972369730E-1,-5.284772813E-2,6.567659378E-1,7.693709068E-1
2.308304873E2,6.690629721E-1,7.497009039E-1,2.128361464E0,2.353639570E0
2.310308363E2,7.144314051E-2,3.444103301E-1,3.978341818E-1,5.310316695E-1
2.312311853E2,-6.305079907E-2,-1.404265612E-1,1.255226135E-1,1.986226293E-1
2.314315343E2,-9.785240516E-3,-6.807251573E-1,-8.422024846E-1,1.082953146E0
2.316318843E2,-9.092622399E-1,-1.478364319E-1,-5.783328414E-1,1.087695871E0
2.318322333E2,4.144243300E-1,-1.548268080E0,-2.266335189E-1,1.618716876E0
2.320325823E2,4.837429523E-1,8.525961041E-1,9.896723628E-1,1.392974783E0
2.322329313E2,4.866219684E-2,1.445430070E-1,3.117365837E-1,3.470452246E-1
2.324332803E2,8.909409642E-1,2.590309680E-1,1.190056652E-1,9.354331577E-1
2.326336293E2,-1.549847275E-1,-3.704821765E-1,-4.840120971E-1,6.289236989E-1
2.328339783E2,3.122899868E-2,1.644331664E-1,4.120714664E-1,4.447655675E-1
2.330343273E2,3.519981205E-1,1.438817829E-1,1.152046323E0,1.213183982E0
2.332346763E2,-2.701458931E-1,-2.095397413E-1,-2.350183278E-1,4.148726565E-1
2.334350253E2,-5.093393922E-1,-4.548843484E-3,-1.195828438E0,1.299789583E0
2.336353733E2,-6.746263057E-2,3.833683729E-1,-3.003386855E-1,4.916562233E-1
2.338357223E2,-1.213144660E-1,-1.755438447E-1,4.997638613E-2,2.191585733E-1
2.340360713E2,9.055640697E-1,4.282167256E-1,7.558557391E-1,1.254883958E0
2.342364203E2,6.442772746E-1,4.353315830E-1,1.026035547E0,1.287383291E0
2.344367693E2,-3.495507538E-1,-1.830721349E-1,1.104279533E-1,4.097504960E-1
2.346371185E2,6.150552630E-1,-3.309043944E-1,3.288524747E-1,7.719680336E-1
2.348374665E2,-9.094417691E-1,-2.611498237E-1,-3.693870902E-1,1.015741298E0
2.350378155E2,4.123201668E-1,8.311493397E-1,7.682760954E-1,1.204601720E0
2.352381645E2,-3.421557546E-1,-5.498526692E-1,5.428567529E-2,6.498888003E-1
2.354385135E2,5.122498274E-1,1.627860516E-1,1.675224006E-1,5.629946172E-1
2.356388607E2,-1.131067514E0,-2.186654359E-1,-1.312217474E0,1.746150908E0
2.358392097E2,5.397983193E-1,-7.686224580E-1,-3.790529370E-1,1.012839492E0
2.360395587E2,-1.667794287E-1,-7.711717486E-2,2.835790813E-2,1.859209710E-1
2.362399067E2,7.651999593E-1,3.340243399E-1,9.693931937E-1,1.279385165E0
2.364402557E2,5.292240381E-1,4.389363527E-1,9.379073977E-1,1.162933141E0
2.366406053E2,5.839795470E-1,2.063965499E-1,5.586347580E-1,8.340889881E-1
2.368409533E2,7.625468075E-2,-1.429605961E0,-1.219633460E0,1.880716288E0
2.370413023E2,-1.041078329E0,-4.992500842E-1,-5.481905937E-1,1.278126622E0
2.372416503E2,4.947434366E-1,1.620662808E-1,2.064272910E-1,5.600435464E-1
2.374419993E2,4.417657554E-1,5.716060400E-1,6.751158834E-1,9.887729282E-1
2.376423485E2,-1.345283836E-1,-3.357264102E-1,-3.575905859E-1,5.086070542E-1
2.378426965E2,7.603700757E-1,9.899887443E-1,7.294907570E-1,1.445820573E0
2.380430455E2,-3.339146450E-2,-3.463065624E-1,1.099574789E-1,3.648751461E-1
2.382433935E2,3.415564597E-1,1.113044620E0,1.397718549E0,1.819105902E0
2.384437415E2,2.025161497E-2,1.959098130E-1,5.680894256E-1,6.012623206E-1
2.386440895E2,-2.896683812E-1,-1.177701652E-1,-1.064534858E-1,3.303179189E-1
2.388444375E2,-4.408716857E-1,-9.847423434E-1,-1.050717592E0,1.506018853E0
2.390447865E2,1.478485316E-1,4.784139097E-1,-1.330322623E-1,5.181087145E-1
2.392451345E2,-3.906287551E-1,-7.130280137E-1,-5.164043307E-1,9.631579338E-1
2.394454835E2,6.152868867E-1,-7.612007856E-1,-2.823367119E-1,1.018684744E0
2.396458323E2,5.907491446E-1,8.199266791E-1,1.131693244E0,1.517232319E0
2.398461803E2,-4.559630752E-1,-3.543941379E-1,-3.142053783E-1,6.574363472E-1
2.400465293E2,5.329220295E-1,5.768985152E-1,5.234218240E-1,9.438157618E-1
2.402468773E2,-9.534068108E-1,-2.886562236E-2,-3.638690710E-1,1.020891019E0
2.404472253E2,5.229989290E-1,4.142608047E-1,3.134086728E-1,7.371328851E-1
2.406475731E2,6.834542006E-2,-1.962103844E-1,5.596294999E-1,5.969545950E-1
2.408479211E2,-3.059074841E-2,5.187076330E-2,3.142429888E-2,6.792537475E-2
2.410482701E2,6.124717593E-1,-4.116914272E0,-1.779230088E-1,4.166024649E0
2.412486181E2,4.003369808E-1,3.911600411E-1,-7.197936177E-1,9.117997193E-1
2.414489661E2,-2.964053676E-2,-4.475382268E-1,-3.932902217E-2,4.502397116E-1
2.416493142E2,5.369824171E-1,-4.237595201E-1,-3.461803496E-1,7.666570821E-1
2.418496622E2,7.155660987E-1,8.514313102E-1,1.007114768E0,1.500416700E0
2.420500102E2,-7.705573738E-2,-2.666933537E-1,1.806310862E-1,3.311955931E-1
2.422503582E2,4.846303165E-1,5.544255301E-2,2.254480422E-1,5.373706729E-1
2.424507062E2,-1.232269049E0,1.379778534E-1,-8.303245902E-1,1.492301518E0
2.426510533E2,-1.253572702E-1,1.271068811E0,5.249102712E-1,1.380891437E0
2.428514013E2,1.692933291E-1,-1.941258460E-1,7.211862803E-1,7.658033208E-1
2.430517493E2,-5.006169677E-1,-1.238358095E-1,-2.053396031E-2,5.161146186E-1
2.432520973E2,-1.903605580E0,-5.591770411E-1,-2.072470903E0,2.869064101E0
2.434524453E2,1.447357297E0,-1.553306878E-1,-6.330233812E-1,1.587352944E0
2.436527925E2,2.576228976E-1,3.642531037E-1,4.313836694E-1,6.205978981E-1
2.438531405E2,1.543304920E0,-5.308237076E-1,1.249260902E0,2.055289928E0
2.440534875E2,1.468495131E-1,5.568734407E-1,1.013679385E0,1.165855353E0
2.442538355E2,5.244913325E-2,2.811371982E-1,3.048381209E-1,4.179896120E-1
2.444541825E2,-5.981736630E-2,-6.727001667E-1,-5.101702809E-1,8.463907769E-1
2.446545301E2,-5.031986237E-1,1.029119194E-1,1.513543427E-1,5.354510762E-1
2.448548771E2,9.521870315E-2,5.325703025E-1,7.606729269E-1,9.334457832E-1
2.450552251E2,-1.150929481E-1,3.731368184E-1,6.954461932E-1,7.975731187E-1
2.452555721E2,-8.406211734E-1,1.023969173E0,6.821225286E-1,1.490116764E0
2.454559191E2,-6.389953494E-1,2.708742321E-1,-1.846634507E0,1.972751102E0
2.456562675E2,7.863682508E-1,-6.380808353E-1,-3.785693944E-1,1.081127636E0
2.458566145E2,4.774640501E-1,-1.700706035E-2,8.508133292E-1,9.757789096E-1
2.460569615E2,1.250259638E0,2.941036522E-1,1.798965693E0,2.210412559E0
2.462573095E2,6.766070127E-1,6.138252020E-1,1.563720226E0,1.811021638E0
2.464576565E2,-3.967642784E-1,-8.060443997E-1,-2.180767357E-1,9.244927959E-1
2.466580035E2,1.525447011E0,-4.456761181E-1,2.185931951E-1,1.604181651E0
2.468583505E2,-1.353007078E0,6.512633562E-1,-7.687504888E-1,1.686934921E0
2.470586975E2,-3.307459354E-1,1.253807187E0,9.655038118E-1,1.616670327E0
2.472590445E2,4.367256463E-1,-1.341371983E-1,6.622765064E-1,8.045696048E-1
2.474593915E2,-9.369871020E-1,-5.833669901E-1,-9.259321690E-1,1.440698531E0
2.476597383E2,2.127324194E-1,1.169888824E-1,-5.980364084E-1,6.454370819E-1
2.478600853E2,4.047526717E-1,-8.493133634E-2,-8.448953182E-2,4.221096281E-1
2.480604323E2,-1.000323668E-1,-1.044869274E-1,2.911501527E-1,3.251036816E-1
2.482607793E2,1.761669070E-1,3.795351982E-1,1.012342572E0,1.095408248E0
2.484611253E2,2.809856236E-1,1.970375329E-1,6.970860362E-1,7.769849754E-1
2.486614723E2,-9.108908474E-2,1.907451302E-1,-3.995400965E-1,4.520101932E-1
2.488618193E2,8.681429625E-1,-4.099522829E-1,-7.459985614E-1,1.215831786E0
2.490621663E2,-8.495895267E-1,-3.406412303E-1,-5.170382857E-1,1.051269423E0
2.492625123E2,4.689995646E-1,-1.424725175E0,-8.157719374E-1,1.707420941E0
2.494628593E2,5.408990383E-1,8.490337133E-1,9.429090619E-1,1.379314147E0
2.496632059E2,6.871404052E-1,-2.828666568E-1,-3.745777011E-1,8.321561969E-1
2.498635519E2,4.433274865E-1,2.876631320E-1,1.421759427E-1,5.472689800E-1
2.500638989E2,-7.230594158E-1,-1.911450922E-1,-6.787783504E-1,1.009995749E0
2.502642459E2,1.302488595E-1,1.589259803E-1,5.731275082E-1,6.088492205E-1
2.504645919E2,-3.411937952E-1,-6.300383210E-1,1.085929394E0,1.301001207E0
2.506649395E2,-1.383751035E-1,-6.945075989E-1,3.020757735E-1,7.698949585E-1
2.508652855E2,-9.193696380E-1,-9.923719764E-1,-9.943274856E-1,1.678907329E0
2.510656325E2,2.942696512E-1,6.224685907E-1,4.075470939E-2,6.897265548E-1
2.512659785E2,7.425259054E-2,4.750733376E-1,2.480016798E-1,5.410295338E-1
2.514663245E2,3.095561564E-1,-3.106204271E-1,4.510216415E-1,6.290712081E-1
2.516666703E2,3.751042783E-1,2.078349888E-1,7.920921445E-1,9.007266886E-1
2.518670173E2,-4.333819747E-1,-2.139442265E-1,-2.864544690E-1,5.618258011E-1
2.520673633E2,5.518737435E-1,-4.000430405E-1,1.876510978E-1,7.069738309E-1
2.522677093E2,-5.618802905E-1,-1.550632477E0,-1.776087284E-1,1.658829527E0
2.524680553E2,-1.281925201E0,1.268328309E0,2.287263796E-2,1.803472229E0
2.526684017E2,4.862338603E-1,2.142636925E-1,-6.910201162E-2,5.358240241E-1
2.528687487E2,-6.731166244E-1,2.931989133E-1,-9.515295625E-1,1.201856939E0
2.530690947E2,-2.582879961E-1,1.823128909E-1,-9.862401485E-1,1.035673843E0
2.532694407E2,4.537019879E-2,1.805057973E-1,-5.254796147E-1,5.574671500E-1
2.534697867E2,4.936780334E-1,1.738496125E-1,7.043969035E-1,8.775629243E-1
2.536701318E2,5.608434677E-1,4.240500927E-1,1.050813794E0,1.264347067E0
2.538704778E2,3.788586557E-1,-2.438963018E-2,4.012491703E-1,5.523854014E-1
2.540708238E2,1.842911392E-1,4.473592639E-1,7.897679508E-2,4.902355242E-1
2.542711688E2,-6.998265386E-1,-6.054958701E-1,-1.403338194E0,1.680993908E0
2.544715148E2,-9.735948443E-1,-3.195357323E-1,-6.456707716E-1,1.211148525E0
2.546718612E2,1.517826617E-1,5.547992587E-1,7.204785347E-1,9.219162179E-1
2.548722072E2,-3.922241926E-2,7.527720928E-2,-1.603015065E-1,1.813880630E-1
2.550725532E2,-1.066107899E-1,1.023199782E-1,-1.192442551E-1,1.898800433E-1
2.552728992E2,-6.470485330E-1,1.119451404E0,-1.085447073E0,1.688205733E0
2.554732442E2,3.143568933E-1,-2.990863919E-1,-2.480612993E-1,4.998072973E-1
2.556735901E2,1.247912124E-1,4.487946928E-1,7.635307312E-1,8.944096938E-1
2.558739361E2,8.828728199E-1,4.924008250E-1,1.683261275E0,1.963489626E0
2.560742821E2,6.421251893E-1,3.814352453E-1,1.489291191E0,1.666074985E0
2.562746271E2,-1.627350003E-1,3.263490647E-2,-3.143385351E-1,3.554664992E-1
2.564749731E2,6.619728208E-1,-3.826086223E-1,-5.889693499E-1,9.651332905E-1
2.566753195E2,-9.768290520E-1,-7.886773348E-1,-8.807294369E-1,1.533587714E0
2.568756645E2,-4.138463363E-2,-6.515509486E-1,-3.420074880E-1,7.370213351E-1
2.570760105E2,2.770015001E-1,2.347911745E-1,5.076071024E-1,6.241167336E-1
2.572763555E2,2.048165947E-1,-6.715489924E-2,1.505455673E-1,2.629136470E-1
2.574767015E2,1.162120461E0,-1.598836035E-1,-6.555098295E-2,1.174897300E0
2.576770467E2,2.145506740E-1,-2.580999732E-1,1.782186329E-1,3.800124590E-1
2.578773927E2,-1.449119598E-1,9.191968292E-2,7.598865628E-1,7.790226521E-1
2.580777387E2,-3.529492617E-1,-7.168436050E-1,-1.837296188E-1,8.198746906E-1
2.582780837E2,-1.493204571E-2,1.037272662E-1,1.014430597E-1,1.458526863E-1
2.584784287E2,-7.115058303E-1,-1.960227847E0,-1.340609312E0,2.479106106E0
2.586787747E2,-2.103153802E-2,2.005021423E-1,-3.372617066E-1,3.929235211E-1
2.588791197E2,-1.208502427E-2,1.484256387E-1,3.261157870E-1,3.585076353E-1
2.590794657E2,6.288035512E-1,9.367717803E-2,3.453601003E-1,7.234935511E-1
2.592798107E2,3.083226085E-1,4.479880035E-1,7.223102450E-1,9.041505252E-1
2.594801567E2,3.126087189E-1,1.961070001E-1,3.825357556E-1,5.315221265E-1
2.596805015E2,-2.643542588E-1,-4.993154705E-1,4.787319899E-2,5.670017252E-1
2.598808465E2,-9.230049253E-1,2.559046149E-1,-8.008540869E-1,1.248516132E0
2.600811925E2,-5.809533596E-1,1.104768753E0,9.373415709E-1,1.560970859E0
2.602815375E2,-2.378497422E-1,-3.745955825E-1,2.662530541E-1,5.174795060E-1
2.604818835E2,-1.631884277E-1,2.194427103E-1,-5.023310781E-1,5.719458698E-1
2.606822284E2,-9.807448983E-1,1.314023882E-1,-2.216899633E0,2.427709029E0
2.608825734E2,5.726044178E-1,-2.944963798E-2,-1.025886014E-1,5.824667558E-1
2.610829194E2,3.902808428E-1,3.103370368E-1,6.853466034E-1,8.475424352E-1
2.612832644E2,1.087646961E0,4.977965355E-1,1.146158457E0,1.656640127E0
2.614836094E2,-5.062669516E-2,1.048442870E-1,3.677223623E-1,3.857137831E-1
2.616839540E2,-7.059110999E-1,-5.090304017E-1,-4.748823047E-1,9.914311041E-1
2.618843000E2,7.074698210E-1,-9.494489431E-1,3.106117249E-1,1.224110488E0
2.620846450E2,-8.001489639E-1,-8.385331929E-2,-2.775736749E-1,8.510680870E-1
2.622849900E2,-2.218739390E-1,1.630452573E-1,-3.337211311E-1,4.326448822E-1
2.624853350E2,-1.436641216E-1,2.254709899E-1,-4.555681720E-3,2.673897930E-1
2.626856807E2,9.035986662E-2,-3.988948464E-2,1.537502855E-1,1.827436094E-1
2.628860257E2,1.536973715E0,6.870096922E-1,1.453970745E-2,1.683591970E0
2.630863707E2,-2.274988890E-1,-3.015820086E-1,-1.052467152E-1,3.921534438E-1
2.632867157E2,2.752749324E-1,2.508447766E-1,6.550713778E-1,7.535369270E-1
2.634870607E2,6.139561534E-1,4.812793136E-1,1.213820457E0,1.442890169E0
2.636874064E2,-1.190940961E-1,3.176778257E-1,-1.490578055E-1,3.705682583E-1
2.638877514E2,3.000704013E-2,-6.869662553E-2,-7.016164064E-2,1.026757256E-1
2.640880964E2,8.661013097E-2,-4.506163001E-1,-5.067977905E-1,6.836668525E-1
2.642884414E2,-1.561740756E0,-1.322990537E0,-8.908930421E-1,2.232269823E0
2.644887864E2,-8.270145059E-1,4.163364470E-1,1.621233672E-1,9.399856468E-1
2.646891323E2,-6.239805222E-1,-4.342978895E-1,-1.701252162E-1,7.790436047E-1
2.648894773E2,-5.492541790E-1,-6.710983515E-1,-4.600709379E-1,9.816916106E-1
2.650898223E2,8.741565943E-1,1.166813001E-1,-7.780044675E-1,1.176033685E0
2.652901673E2,6.953153610E-1,-7.361989617E-1,-6.054908633E-1,1.179860817E0
2.654905123E2,-4.452195466E-1,1.185251176E-1,-1.454365849E-1,4.831360558E-1
2.656908575E2,1.691066146E0,-4.743241072E-1,1.283474267E-1,1.761011394E0
2.658912025E2,2.668691576E-1,3.067893535E-2,4.631278813E-1,5.353949745E-1
2.660915475E2,4.352502823E-1,3.480210006E-1,3.530839384E-1,6.597194045E-1
2.662918925E2,1.158110052E-1,-3.064744473E-1,-1.552615613E-1,3.625533453E-1
2.664922375E2,-2.081449032E-1,-1.282211989E-1,-8.865749091E-2,2.600483172E-1
2.666925822E2,-6.856641173E-1,-2.354847193E-1,2.421853133E-2,7.253791230E-1
2.668929272E2,-2.585623562E-1,8.897142112E-2,4.686004221E-1,5.425465524E-1
2.670932722E2,-2.172397524E-1,1.704488136E-2,-4.627189934E-1,5.114611470E-1
2.672936172E2,3.059125245E-1,3.018589914E-1,-7.380442619E-1,8.540554173E-1
2.674939622E2,-3.358500600E-1,3.290292621E-1,-3.488996327E-1,5.854796937E-1
2.676943071E2,1.096824646E0,5.640120506E-1,8.890280724E-1,1.520363381E0
2.678946521E2,1.851717383E-2,-6.782491207E-1,1.510672450E0,1.656048311E0
2.680949971E2,-1.036792621E-1,2.773864269E-1,7.371081114E-1,7.943682944E-1
2.682953421E2,-9.159827232E-2,-4.188244045E-1,-6.977971792E-1,8.189780391E-1
2.684956871E2,1.002047777E0,9.178600460E-2,-3.763321638E-1,1.074313881E0
2.686960317E2,-5.673135519E-1,-6.239249706E-1,-3.074832857E-1,8.975928955E-1
2.688963767E2,1.036041617E0,-4.463752806E-1,-4.199032485E-2,1.128891630E0
2.690967217E2,3.130373657E-1,7.107145190E-1,1.193771243E0,1.424147921E0
2.692970667E2,-2.399077415E-1,3.354125917E-1,3.849078342E-2,4.141725142E-1
2.694974107E2,5.842332840E-1,-3.215318620E-1,3.695278764E-1,7.624054826E-1
2.696977564E2,-4.914191067E-1,-3.983483613E-1,-2.181083560E-1,6.691378112E-1
2.698981014E2,-8.509741426E-1,8.343941569E-1,4.573927522E-1,1.276549541E0
2.700984464E2,-3.110786974E-1,8.264767379E-2,5.086140037E-1,6.019043103E-1
2.702987914E2,1.203169972E-1,5.415446758E-1,2.400090743E-4,5.547493788E-1
2.704991364E2,-6.041846275E-1,-6.631954312E-1,-1.878733873E0,2.081948177E0
2.706994815E2,2.869877219E-1,7.238722593E-2,-3.809458315E-1,4.824122610E-1
2.708998265E2,1.818542928E-1,-6.193161011E-2,-1.459406912E-1,2.412575252E-1
2.711001705E2,5.167660713E-1,-1.431947481E-2,4.775875062E-2,5.191657906E-1
2.713005155E2,3.805456758E-1,-1.098139733E-1,8.186179996E-1,9.094006539E-1
2.715008605E2,5.423038602E-1,-7.154366374E-1,-1.001146585E-1,9.033083658E-1
2.717012050E2,-8.191775680E-1,-2.528128326E-1,-1.960786283E-1,8.794390511E-1
2.719015500E2,-5.244718194E-1,-1.794651747E-1,3.627584875E-2,5.555127140E-1
2.721018940E2,-6.650750041E-1,2.092581941E-3,-1.066105217E-1,6.735688111E-1
2.723022390E2,-7.564634681E-1,-2.669353187E-1,-7.353287935E-2,8.055423808E-1
2.725025840E2,-3.509063125E-1,-2.272639424E-1,1.381741613E-1,4.403137955E-1
2.727029280E2,-1.363112807E0,-1.475960165E-1,-2.163090229E0,2.561019416E0
2.729032730E2,4.923680127E-1,-6.614455581E-1,-8.249977827E-1,1.166429521E0
2.731036180E2,5.757720470E-1,3.417499959E-1,9.019832611E-1,1.123334462E0
2.733039620E2,-1.795928329E-1,-1.118679285E0,1.793282509E0,2.121216416E0
2.735043070E2,2.952205390E-2,5.742973685E-1,1.040245742E-1,5.843886816E-1
2.737046522E2,-1.602415740E-1,-4.448035061E-1,3.264105916E-1,5.745184030E-1
2.739049962E2,4.559506476E-1,-3.624929786E-1,-6.658486128E-1,8.846731191E-1
2.741053412E2,-7.916520834E-1,-5.243863463E-1,-5.432778001E-1,1.094004035E0
2.743056862E2,1.436837018E-1,-1.334818125E0,-8.506035209E-1,1.589311418E0
2.745060302E2,-1.364720464E-1,1.330803037E-1,4.518024623E-1,4.903676699E-1
2.747063750E2,-4.539895058E-1,6.007848382E-1,-3.814542890E-1,8.441304803E-1
2.749067190E2,1.658622980E0,-4.232671261E-1,4.269226193E-1,1.764213188E0
2.751070640E2,5.832745433E-1,-3.391506374E-1,-4.966906607E-1,8.378149916E-1
2.753074080E2,4.895804524E-1,5.369387269E-1,1.016461015E0,1.249473973E0
2.755077530E2,1.160955895E-2,-3.499257565E-1,8.525634408E-1,9.216546194E-1
2.757080967E2,-2.635122836E-1,-4.070715979E-2,-2.119540721E-1,3.406175643E-1
2.759084407E2,-3.233714402E-1,-1.269567132E0,-1.507881165E0,1.997517308E0
2.761087857E2,4.047916532E-1,1.339240670E-1,-2.574379146E-1,4.980624640E-1
2.763091297E2,4.576075077E-2,6.437736750E-1,-3.582569957E-1,7.381643894E-1
2.765094737E2,1.127064228E0,-5.240212679E-1,1.020386457E0,1.608123312E0
2.767098202E2,3.468189538E-1,8.419177681E-2,8.257420659E-1,8.995674524E-1
2.769101642E2,-3.706052005E-1,-2.149965018E-1,-6.254187226E-1,7.581030860E-1
2.771105082E2,-1.616374552E-1,-5.464540720E-1,-1.611915529E-1,5.922173895E-1
2.773108522E2,-1.165097117E0,-2.768763304E-1,-4.779917002E-1,1.289413766E0
2.775111972E2,-1.784060955E0,1.619113326E0,-1.970437616E-1,2.417276918E0
2.777115398E2,-1.205916628E-1,-2.126979679E-1,-4.747656286E-1,5.340273184E-1
2.779118838E2,-2.028513998E-1,-2.102678865E-1,-2.591749728E-1,3.905546582E-1
2.781122278E2,-6.807460189E-1,8.157658577E-2,-2.146924973E0,2.253742825E0
2.783125718E2,1.884483248E-1,1.451037973E-1,2.091674805E-1,3.167316183E-1
2.785129158E2,1.011929959E-1,8.694475293E-1,4.057051837E-1,9.647671868E-1
2.787132602E2,8.179685473E-1,-4.403989762E-2,1.381844640E0,1.606395551E0
2.789136042E2,1.348190010E-1,1.159841791E-1,5.626345277E-1,5.900729655E-1
2.791139482E2,-2.549980879E-1,-4.141858518E-1,-2.184346169E-1,5.331862963E-1
2.793142922E2,-1.441464722E-1,-1.035287604E-1,-1.505652517E-1,2.327365564E-1
2.795146362E2,-8.097473979E-1,-5.369299650E-1,-2.220591456E-1,9.966418112E-1
2.797149795E2,2.279762626E-1,-8.271291107E-2,-4.431443810E-1,5.051648685E-1
2.799153235E2,8.915996552E-2,9.615509510E-1,2.828414738E-1,1.006245015E0
2.801156675E2,2.740592659E-1,-1.369405817E-2,2.286146283E-1,3.571563477E-1
2.803160115E2,-4.830102902E-3,2.758753002E-1,-2.465942316E-2,2.770173249E-1
2.805163545E2,-2.484759539E-1,-3.977689445E-1,-2.913407683E-1,5.521230625E-1
2.807166993E2,3.852984309E-1,7.675389051E-1,5.113474727E-1,9.995234312E-1
2.809170433E2,-7.163159251E-1,-4.791249931E-1,1.392783597E-2,8.618951492E-1
2.811173873E2,-7.972061634E-2,-2.447319776E-1,1.459348053E-1,2.958818766E-1
2.813177303E2,-1.827178150E-1,-7.563387752E-1,-1.176911831E0,1.410870512E0
2.815180743E2,1.965826452E-1,-3.443299234E-2,-2.922601402E-1,3.539016203E-1
2.817184178E2,3.960020244E-1,2.436705977E-1,4.183239341E-1,6.254501398E-1
2.819187618E2,4.903678298E-1,1.692626625E-1,6.023886204E-1,7.949732746E-1
2.821191058E2,4.031778499E-2,3.795013130E-1,2.782442272E-1,4.722992910E-1
2.823194488E2,9.228859842E-2,-2.850696743E-1,-2.182949930E-1,3.707217401E-1
2.825197928E2,2.336167730E-2,-2.079473436E-1,-6.997365355E-1,7.303554510E-1
2.827201358E2,-7.835749388E-1,-6.816526651E-1,-5.006371140E-1,1.152943000E0
2.829204798E2,1.494328827E-1,3.642428517E-1,3.618519753E-2,3.953636427E-1
2.831208228E2,9.265507758E-2,8.382908702E-1,7.614951134E-1,1.136306013E0
2.833211658E2,6.440708041E-1,-1.282508254E0,-1.159927398E-1,1.439829482E0
2.835215098E2,-1.250149757E-1,1.076022387E0,-7.798897102E-3,1.083288393E0
2.837218518E2,1.752568334E-1,-3.765197098E-1,-1.007733569E-1,4.273608768E-1
2.839221948E2,9.885658324E-2,-1.629073471E-1,2.601719797E-1,3.224916848E-1
2.841225378E2,1.065429822E-1,-4.994028509E-1,2.848103046E-1,5.846978058E-1
2.843228808E2,-1.418262124E-1,2.706262171E-1,1.542343991E-3,3.055414910E-1
2.845232248E2,-4.536649212E-2,-1.644540727E-1,-2.869903147E-1,3.338662927E-1
2.847235679E2,-1.585402340E-2,5.949832797E-1,-6.908376515E-2,5.991903035E-1
2.849239109E2,-4.450768232E-1,-8.267790824E-2,1.653366387E-1,4.819390202E-1
2.851242539E2,6.020983458E-1,-5.516362786E-1,-3.638999760E-1,8.940068201E-1
2.853245969E2,6.946110725E-1,4.865415692E-1,2.658833861E-1,8.887638695E-1
2.855249399E2,-6.748805046E-1,-1.356375366E-1,-4.885698557E-1,8.441337221E-1
2.857252832E2,8.278833032E-1,5.671489239E-1,-2.550961077E-1,1.035433576E0
2.859256262E2,-2.427518964E-1,2.536910586E-2,-1.810762435E-1,3.039090007E-1
2.861259692E2,1.431871355E-1,4.306936860E-1,5.142365694E-1,6.858854542E-1
2.863263122E2,-1.057111844E-1,-4.501506686E-1,3.808788359E-1,5.990652440E-1
2.865266542E2,-2.341068909E-2,-1.120666042E-1,-6.879878044E-2,1.335674224E-1
2.867269965E2,-4.128371775E-1,-2.818309963E-1,-6.197639704E-1,7.962227230E-1
2.869273395E2,-6.555674672E-1,1.782015562E-1,-6.871693730E-1,9.662951133E-1
2.871276825E2,-1.824657172E-1,2.786100470E-2,7.132674754E-2,1.978824865E-1
2.873280245E2,5.559086204E-1,-1.868559867E-1,-4.826691449E-1,7.595518793E-1
2.875283675E2,-1.611199230E-2,4.351225793E-1,5.511458516E-1,7.023909204E-1
2.877287105E2,1.828909218E-1,-1.073041037E-1,1.822893620E-1,2.796295253E-1
2.879290525E2,4.894836545E-1,6.948289275E-1,-3.707638383E-1,9.272795211E-1
2.881293955E2,-6.281336546E-1,-3.314511776E-1,-5.073941946E-1,8.728462865E-1
2.883297375E2,-4.035812020E-1,7.007477880E-1,2.321512103E-1,8.413200541E-1
2.885300805E2,5.250546932E-1,2.451396734E-1,7.015506029E-1,9.099171054E-1
2.887304233E2,-1.121809036E-1,-1.775091439E-1,-1.982061863E-1,2.887555083E-1
2.889307663E2,-1.145002320E-1,-1.561164558E-1,-9.078905582E-1,9.283037847E-1
2.891311083E2,-3.056150973E-1,-8.135145903E-2,-4.739934504E-1,5.698143896E-1
2.893314513E2,-2.833419442E-1,-1.106534824E-1,-4.738283157E-2,3.078505859E-1
2.895317933E2,5.018088818E-1,1.117578968E-1,5.436299443E-1,7.482215565E-1
2.897321346E2,3.096713126E-1,-1.275579482E-1,-5.990081653E-2,3.402285406E-1
2.899324776E2,2.528807521E-1,-8.045596071E-3,-2.942853868E-1,3.880944412E-1
2.901328196E2,3.610825241E-1,-1.450117826E-1,-4.657227695E-1,6.068827764E-1
2.903331616E2,-1.279505253E0,-2.156224549E-1,-8.936784863E-1,1.575527839E0
2.905335036E2,6.085247397E-1,1.653368771E-1,1.004593074E-1,6.385379505E-1
2.907338470E2,-9.395539761E-2,-1.209745333E-1,1.949835122E-1,2.479536740E-1
2.909341890E2,-1.102707908E-1,-3.287193179E-1,-2.372708768E-1,4.201351047E-1
2.911345310E2,-1.744119525E-1,-1.251608580E-1,-1.183647394E0,1.202957158E0
2.913348730E2,-1.490623802E-1,-5.783541799E-1,-9.127101898E-1,1.090758012E0
2.915352150E2,2.634488940E-1,-5.647381544E-1,-1.029795408E-1,6.316164094E-1
2.917355568E2,7.853780389E-1,7.358683348E-1,5.053131580E-1,1.188975297E0
2.919358988E2,2.715678811E-1,4.534070790E-1,5.036458373E-1,7.300590543E-1
2.921362408E2,-1.865019836E-2,-2.721204460E-1,-3.446165621E-1,4.394973742E-1
2.923365828E2,2.947699130E-1,-5.622507334E-1,-5.941185951E-1,8.694780583E-1
2.925369248E2,-1.030594110E0,-2.191500179E-2,-8.354138136E-1,1.326846158E0
2.927372669E2,-2.507426143E-1,4.061625898E-1,2.486702800E-1,5.382163283E-1
2.929376089E2,-3.469808698E-1,-2.789706588E-1,-1.178091615E-1,4.605424530E-1
2.931379509E2,-1.540702954E-2,-3.416325748E-1,-3.500346839E-1,4.893612905E-1
2.933382929E2,1.166581586E-1,-2.455498576E-1,-9.206162393E-2,2.870177715E-1
2.935386349E2,-1.222802028E-1,-3.167550564E-1,-8.416776657E-1,9.075833332E-1
2.937389773E2,-5.903173089E-1,-2.100301683E-1,-3.649820387E-1,7.251200489E-1
2.939393183E2,1.141363144E0,2.213719785E-1,6.583824158E-1,1.336107325E0
2.941396603E2,2.532519102E-1,7.749590278E-1,5.069350004E-1,9.600422488E-1
2.943400023E2,-4.517374039E-1,1.336248666E-1,5.630930886E-2,4.744396962E-1
2.945403443E2,-1.291683912E-1,2.936207056E-1,-2.832097411E-1,4.279081087E-1
2.947406860E2,-5.708804727E-1,-1.310496330E-1,-7.215423882E-2,5.901565509E-1
2.949410270E2,4.985455573E-1,-5.872036815E-1,-2.570862174E-1,8.120647507E-1
2.951413690E2,-1.150185056E-2,2.794989049E-1,1.945543140E-1,3.407393601E-1
2.953417110E2,3.077307940E-1,-1.784624755E-1,-8.577894419E-2,3.659304907E-1
2.955420520E2,1.132560611E0,-1.229256168E-1,1.119743660E-1,1.144701928E0
2.957423940E2,-1.024874821E-1,-2.654197812E-1,-2.859799862E-1,4.034053752E-1
2.959427360E2,-1.329018474E-1,2.541400492E-1,2.644434869E-1,3.901030933E-1
2.961430770E2,3.825556338E-1,1.304540187E-1,5.826380253E-1,7.091079836E-1
2.963434190E2,-5.262951851E-1,-6.402854621E-2,1.775577851E-2,5.304729439E-1
2.965437610E2,5.994700640E-2,-7.587665915E-1,-3.679601252E-1,8.454082078E-1
2.967441019E2,-8.392308354E-1,2.247594297E-1,-6.263741851E-1,1.071060137E0
2.969444439E2,-6.724265218E-1,-2.346351445E-1,-2.658097446E-1,7.601749131E-1
2.971447859E2,-1.735910326E-1,-1.987327486E-1,-3.371147513E-1,4.281061872E-1
2.973451269E2,-2.285273075E-1,2.358471006E-1,2.275373340E-1,3.995269997E-1
2.975454689E2,-2.891589403E-1,-2.073185742E-1,-9.264104813E-2,3.676632260E-1
2.977458103E2,9.543676972E-1,2.094155550E-1,-2.866945975E-2,9.774939970E-1
2.979461523E2,-4.750269055E-1,-2.567141950E-1,-4.799719155E-1,7.224443083E-1
2.981464933E2,-4.193910956E-1,2.840674818E-1,7.583729178E-2,5.121860210E-1
2.983468353E2,9.100355506E-1,1.607706994E-1,6.571376324E-1,1.133949641E0
2.985471763E2,-5.264081955E-1,1.868154667E-2,1.721236706E-1,5.541490291E-1
2.987475183E2,7.941368967E-3,-1.266845614E-1,-3.376806676E-1,3.607496039E-1
2.989478593E2,3.671554476E-2,-3.712662756E-1,-2.750983834E-1,4.635361898E-1
2.991482013E2,-5.730713606E-1,-8.972465247E-2,-9.569998831E-2,5.878943658E-1
2.993485423E2,-3.053845465E-1,6.647376418E-1,1.211977378E-1,7.415016826E-1
2.995488833E2,3.340822086E-2,2.142552286E-1,1.597359478E-1,2.693269115E-1
2.997492249E2,-3.991098702E-1,9.515604377E-2,-2.550303042E-1,4.830981445E-1
2.999495659E2,-6.556038558E-2,-2.215675414E-1,-4.162018001E-1,4.760402062E-1
3.001499069E2,-4.927245975E-1,3.883667588E-1,-6.631707549E-1,9.129083845E-1
3.003502489E2,8.066444993E-1,1.678628847E-2,7.859073281E-1,1.126324756E0
3.005505899E2,-1.951135546E-1,-3.995766342E-1,-5.082575083E-1,6.753195395E-1
3.007509314E2,4.224899113E-1,5.335143805E-1,6.645412445E-1,9.511836757E-1
3.009512734E2,1.489026994E-1,8.992000669E-2,-4.450812191E-2,1.795510913E-1
3.011516144E2,2.550653927E-2,-1.556086987E-1,-1.097886637E-1,1.921410975E-1
3.013519554E2,1.638422310E-1,-1.672374606E0,-1.071965396E-1,1.683796959E0
3.015522964E2,-1.290359795E-1,3.593453765E-2,1.685040146E-1,2.152560753E-1
3.017526379E2,-1.045809746E0,-3.344012052E-2,4.390013516E-1,1.134706329E0
3.019529789E2,-2.783834636E-1,1.734520942E-1,2.081390172E-1,3.884647118E-1
3.021533199E2,-4.090709686E-1,-2.330507487E-1,-6.019244194E-1,7.641758407E-1
3.023536609E2,2.293124944E-1,1.778662354E-1,-4.340085685E-1,5.220958296E-1
3.025540019E2,-3.458157778E-1,-3.952521086E-1,3.447677195E-1,6.282336842E-1
3.027543428E2,1.339424849E-1,-6.980988979E-1,-3.609911203E-1,7.972435321E-1
3.029546848E2,-2.264792025E-1,2.837200463E-1,3.144318759E-1,4.802679444E-1
3.031550258E2,3.604829609E-1,1.722585857E-1,3.141863942E-1,5.082657531E-1
3.033553668E2,3.345710635E-1,-5.045878291E-1,-5.964985490E-2,6.083623748E-1
3.035557078E2,-5.479649901E-1,1.313665360E-1,-5.405684114E-1,7.808565839E-1
3.037560492E2,6.166540980E-1,3.259094954E-1,5.287219882E-1,8.752292366E-1
3.039563902E2,-1.787409186E-1,-3.171343505E-1,8.052788377E-1,8.837400742E-1
3.041567312E2,-4.656046331E-1,4.601952434E-1,3.602151573E-1,7.472096733E-1
3.043570722E2,-3.722662628E-1,-6.426193714E-1,-1.326713681E0,1.520431195E0
3.045574132E2,2.038521916E-1,-2.895165049E-2,-3.160740137E-1,3.772223432E-1
3.047577542E2,-2.912539542E-1,-9.824126214E-2,-1.061776578E-1,3.251982571E-1
3.049580952E2,7.581912279E-1,4.108814597E-1,6.492720842E-1,1.079459009E0
3.051584362E2,3.679555058E-1,-1.662609726E-1,5.087861419E-1,6.495362218E-1
3.053587772E2,2.832966745E-1,2.621291876E-1,2.082598954E-1,4.385668715E-1
3.055591172E2,-4.753068835E-2,-5.573840737E-1,9.730328619E-2,5.678063944E-1
3.057594577E2,-7.027076483E-1,9.281031042E-2,-3.221677244E-1,7.785909294E-1
3.059597987E2,-3.056663871E-1,6.651211977E-1,3.896723092E-1,8.292542773E-1
3.061601397E2,-5.881605670E-3,-4.163984954E-2,2.101948708E-1,2.143603370E-1
3.063604807E2,1.099766195E-1,-1.073974669E-1,1.074898094E-1,1.875716712E-1
3.065608217E2,3.604506552E-1,3.331924677E-1,-2.090643644E-1,5.335258230E-1
3.067611629E2,-9.742507339E-2,-1.288708597E-1,-5.129867196E-1,5.378240585E-1
3.069615039E2,3.929134905E-1,1.938519068E-2,1.724001467E-1,4.295097289E-1
3.071618449E2,5.738194585E-1,2.761475444E-1,8.224835992E-1,1.040194938E0
3.073621859E2,2.537106872E-1,8.925720118E-3,5.923843384E-1,6.444904853E-1
3.075625259E2,1.665085554E-1,1.078585833E-1,-3.235088289E-1,3.794951059E-1
3.077628663E2,1.739777476E-1,-2.952733934E-1,-7.536892891E-1,8.279505891E-1
3.079632073E2,-1.071505308E0,-3.593243659E-1,-1.175866842E0,1.630920126E0
3.081635473E2,-1.862078719E-2,7.519195974E-2,3.840727210E-1,3.918066099E-1
3.083638883E2,5.324990749E-1,4.527109861E-1,9.467341304E-1,1.176778660E0
3.085642293E2,-2.557090819E-1,1.905706823E-1,-4.493813217E-1,5.510425499E-1
3.087645696E2,1.186870560E-1,7.408840060E-1,-5.578215122E-1,9.349655433E-1
3.089649106E2,-6.320010871E-2,-3.783533275E-1,-4.937912524E-1,6.252801733E-1
3.091652506E2,6.915350258E-2,8.331401646E-2,1.970489323E-2,1.100532375E-1
3.093655916E2,1.459016502E-1,-9.493900836E-2,1.308511019E0,1.320038557E0
3.095659316E2,3.919658437E-2,3.346513510E-1,3.979651928E-1,5.214443341E-1
3.097662725E2,2.526017129E-1,4.220878780E-1,-1.177472115E0,1.276090272E0
3.099666125E2,-5.520074442E-2,-8.187394738E-1,-3.842942417E-1,9.061255500E-1
3.101669535E2,-1.193349242E0,-1.944012403E0,-3.958657384E-1,2.315162267E0
3.103672935E2,-6.640081406E-1,3.480001390E-1,1.494500786E-1,7.644254270E-1
3.105676345E2,5.157262087E-1,6.374338269E-1,6.332591176E-1,1.036007971E0
3.107679745E2,1.962564886E-1,7.883334160E-2,1.161149070E-1,2.412757275E-1
3.109683155E2,4.856455624E-1,-5.334531143E-2,-7.311205268E-1,8.793375684E-1
3.111686555E2,-1.693633012E-2,-7.612384111E-2,-6.045464277E-1,6.095556265E-1
3.113689955E2,4.275704920E-1,3.075425327E-1,9.260907173E-1,1.065383946E0
3.115693365E2,5.312998295E-1,-1.256518625E-2,1.494050026E0,1.585756246E0
3.117696765E2,7.224422097E-1,1.900902987E-1,8.953151703E-1,1.166038731E0
3.119700175E2,4.011780024E-1,2.097970247E-1,6.045967340E-1,7.553117184E-1
3.121703575E2,2.031954750E-2,-3.468177095E-2,-9.527866244E-1,9.536341337E-1
3.123706975E2,-1.170557380E0,-1.185581237E-1,-9.176697731E-1,1.492105365E0
3.125710375E2,-4.300410300E-2,-4.299258292E-1,-3.103940785E-1,5.320056912E-1
3.127713790E2,4.170950651E-1,4.329410195E-1,8.535721302E-1,1.044026629E0
3.129717190E2,-1.736452281E-1,-1.358060986E-1,-2.486921698E-1,3.323307945E-1
3.131720590E2,7.866388559E-1,2.813739777E-1,1.550981104E-1,8.497219715E-1
3.133723990E2,-3.478219211E-1,-3.423372805E-1,-8.805346489E-1,1.006735402E0
3.135727400E2,3.363206387E-1,5.797969177E-2,3.089089394E-1,4.603237442E-1
3.137730790E2,4.625498354E-1,-4.558182061E-1,1.501985073E0,1.636362352E0
3.139734190E2,-2.840822935E-1,4.272295237E-1,1.376958657E-2,5.132420646E-1
3.141737590E2,8.916284144E-2,-9.718587995E-2,-4.670671746E-2,1.399164930E-1
3.143740990E2,4.586612582E-1,-3.263354301E-1,-7.032718658E-1,9.008086812E-1
3.145744390E2,-1.314066410E0,2.269230410E-2,-9.618561268E-1,1.628635220E0
3.147747797E2,-2.501710504E-2,-2.462085187E-1,-2.882066667E-1,3.798783660E-1
3.149751197E2,5.140556097E-1,5.061298609E-1,7.454107404E-1,1.037332048E0
3.151754597E2,6.361000985E-2,-1.743113548E-1,-2.373244241E-2,1.870665940E-1
3.153757997E2,1.534194469E0,5.858305097E-1,6.228526831E-1,1.756387065E0
3.155761397E2,-9.639682770E-1,-2.797584534E-1,-8.682367802E-1,1.327152869E0
3.157764794E2,-2.721441984E-1,4.862802625E-1,2.972657979E-1,6.315836548E-1
3.159768194E2,1.893574297E-1,-3.181251287E-1,1.568757296E0,1.611849648E0
3.161771594E2,-9.775639325E-2,4.235391021E-1,3.256972730E-1,5.431578013E-1
3.163774994E2,-1.263429165E0,-2.550217807E-1,-9.568475485E-1,1.605255928E0
3.165778394E2,6.236180067E-1,5.303393006E-1,-9.313343763E-1,1.239976981E0
3.167781793E2,1.665316871E-3,2.766892612E-1,-2.602515817E-1,3.798560337E-1
3.169785193E2,1.466221929E0,4.625269175E-1,5.867399573E-1,1.645600702E0
3.171788583E2,6.945711374E-1,5.191498995E-1,9.087914824E-1,1.256124055E0
3.173791983E2,-7.085210085E-1,-2.888072729E-1,-4.944488704E-1,9.109837242E-1
3.175795383E2,1.151831746E0,-2.242136449E-1,3.223362267E-1,1.216917735E0
3.177798778E2,-1.985288739E0,1.507579833E-1,-1.366062284E0,2.414585991E0
3.179802178E2,-1.709760129E-1,2.141552418E-1,3.837547824E-2,2.767091288E-1
3.181805578E2,6.598220789E-4,2.081151307E-2,2.221252620E-1,2.230990508E-1
3.183808968E2,-1.606669724E-1,3.468956649E-1,-1.320632249E-1,4.044640574E-1
3.185812368E2,1.235001683E-1,-6.606302261E-1,-6.075185537E-1,9.059599221E-1
3.187815775E2,-3.991658688E-1,-1.730189621E-1,-4.845936894E-1,6.512296031E-1
3.189819175E2,3.391190469E-1,8.292142302E-2,2.022584975E-1,4.034677065E-1
3.191822565E2,6.851942539E-1,1.313311458E-1,1.160733223E0,1.354267570E0
3.193825965E2,-3.634595573E-1,4.423824549E-1,8.457450271E-1,1.021317647E0
3.195829365E2,1.783837080E-1,3.611536026E-1,2.394850254E-1,4.686211149E-1
3.197832760E2,5.093303919E-1,-5.689179301E-1,-1.506022513E-1,7.783097696E-1
3.199836150E2,-1.365986466E0,2.051742971E-1,-1.022409201E0,1.718527303E0
3.201839550E2,-8.874338865E-1,4.285128415E-1,2.256214917E-1,1.010973400E0
3.203842950E2,4.321933687E-1,5.376021266E-1,6.320239305E-1,9.355540622E-1
3.205846340E2,2.051122487E-1,2.933500409E-1,-5.450911075E-2,3.620725400E-1
3.207849747E2,1.134093881E0,7.062899321E-2,-1.359676570E-1,1.144397041E0
3.209853147E2,-1.944151223E-1,-4.370399117E-1,-7.247774601E-1,8.683913236E-1
3.211856537E2,1.468228579E0,1.271270365E-1,1.284723282E0,1.955088324E0
3.213859937E2,-2.672382593E-1,-8.721270561E-1,9.122075886E-2,9.167023051E-1
3.215863337E2,-7.612915337E-2,-2.291719019E-1,6.054229736E-1,6.518070156E-1
3.217866723E2,-1.139289618E0,-5.361697674E-1,-1.121935606E0,1.686475128E0
3.219870123E2,-5.443393588E-1,-1.636329442E-1,-1.456457019E0,1.563441117E0
3.221873523E2,-7.155183554E-1,-3.980926573E-1,-2.638778985E-1,8.602765985E-1
3.223876923E2,7.481448054E-1,-8.384296298E-1,-2.065413892E-1,1.142516625E0
3.225880323E2,-2.159856111E-1,3.463936746E-1,7.264854386E-3,4.082782631E-1
3.227883710E2,-4.929479957E-1,-4.504060745E-1,2.575727403E-1,7.156864362E-1
3.229887110E2,1.278734446E0,5.793786258E-4,1.617417298E-2,1.278836863E0
3.231890510E2,-3.694864511E-1,-9.868206084E-2,-3.397333920E-1,5.115439027E-1
3.233893900E2,-3.791546226E-1,6.048225164E-1,6.828984618E-2,7.170997192E-1
3.235897300E2,7.760110497E-1,-7.221215963E-1,1.857271552E0,2.138483193E0
3.237900690E2,-3.060849905E-1,5.775623322E-1,-1.338939816E-1,6.672284970E-1
3.239904090E2,-1.052309632E0,-6.434441209E-1,-1.074219227E0,1.635641417E0
3.241907480E2,7.143815756E-1,1.704864353E-1,-5.004748106E-1,8.887528882E-1
3.243910870E2,-9.394322634E-1,-2.195976228E-1,-5.986305475E-1,1.135391838E0
3.245914270E2,1.320003033E0,-6.965397596E-1,1.280877143E-1,1.497992692E0
3.247917662E2,2.211800665E-1,1.430408657E-1,3.360319436E-1,4.269646099E-1
3.249921062E2,2.363955230E-1,2.645137608E-1,2.838086188E-1,4.543101419E-1
3.251924452E2,1.815248132E-1,1.163338304E0,3.553690612E-1,1.229875781E0
3.253927852E2,-7.021484971E-1,-9.328690171E-1,1.330476906E-2,1.167661823E0
3.255931242E2,-9.029837698E-2,-5.937129632E-2,2.081598788E-1,2.345405783E-1
3.257934635E2,-3.780389950E-2,1.384697318E0,1.999636889E0,2.432563151E0
3.259938035E2,-4.745372236E-1,-7.529395223E-1,1.136585236E0,1.443582176E0
3.261941425E2,1.175745845E0,1.731383204E-1,-6.134136915E-1,1.337397296E0
3.263944815E2,8.934381418E-3,1.430706382E0,-2.311845124E-1,1.449291845E0
3.265948215E2,1.423557252E-1,1.086188555E0,8.517459631E-1,1.387638971E0
3.267951600E2,-6.043062806E-1,2.112118155E-2,1.249964237E0,1.388539801E0
3.269955000E2,-5.537066460E-1,5.758023262E-1,7.652242184E-1,1.106213123E0
3.271958390E2,-3.243477270E-2,3.930721283E-1,-1.501192302E-1,4.220112508E-1
3.273961780E2,7.512602955E-3,-2.221602052E-1,-7.025755644E-1,7.369016350E-1
3.275965180E2,2.102369666E-1,-3.700417876E-1,-1.062199950E0,1.144289841E0
3.277968572E2,-7.148424983E-1,-6.969643831E-1,-4.654143751E-1,1.101530612E0
3.279971962E2,1.389578938E0,1.116714239E0,2.469038665E-1,1.799706042E0
3.281975362E2,-1.455101222E-1,2.494915873E-1,2.960465550E-1,4.135974015E-1
3.283978752E2,-7.368522882E-1,6.892734766E-1,8.988276720E-1,1.351273623E0
3.285982152E2,-2.849161327E-1,3.010957539E-1,-7.388547063E-1,8.471966317E-1
3.287985540E2,7.789628506E-1,-1.513559371E-1,-1.962472349E-1,8.174378995E-1
3.289988930E2,-8.956919909E-1,-1.038100362E0,-1.411443651E-1,1.378346196E0
3.291992330E2,-9.009755850E-1,5.056569576E-1,1.308418661E-1,1.041424773E0
3.293995720E2,-3.251060247E-1,-2.593453526E-1,-4.932260811E-1,6.451557226E-1
3.295999120E2,-1.139095664E0,-5.485929251E-1,-8.367762566E-1,1.516142352E0
3.298002508E2,-2.804612815E-1,-2.351960093E-1,4.999408424E-1,6.196099895E-1
3.300005898E2,4.976168573E-1,-3.966281116E-1,7.568620890E-2,6.408313333E-1
3.302009298E2,8.384380490E-2,2.712909877E-1,4.433528483E-1,5.264886815E-1
3.304012688E2,3.089613914E-1,4.491301998E-2,1.147791743E-1,3.326388126E-1
3.306016078E2,-2.742360234E-1,4.199545085E-1,6.678394079E-1,8.352105486E-1
3.308019487E2,-6.144790649E-1,-6.317549944E-1,-3.467807770E-1,9.470775055E-1
3.310022877E2,4.625158906E-1,-3.985871077E-1,2.273170948E-1,6.515103169E-1
3.312026267E2,-6.679726243E-1,-8.080769777E-1,-2.194504291E-1,1.071136928E0
3.314029667E2,3.510423601E-1,1.184661612E-1,5.088453293E-1,6.294350952E-1
3.316033057E2,-8.362107724E-2,-3.053161204E-1,-1.310639381E-1,3.426195759E-1
3.318036447E2,-1.940567791E-1,4.174652398E-1,-4.943959713E-1,6.755461763E-1
3.320039847E2,-2.491284460E-1,-2.218842506E-1,-2.662518024E-1,4.268344241E-1
3.322043237E2,-2.177169323E-1,2.353640497E-1,6.408038139E-1,7.165378053E-1
3.324046627E2,1.208465695E0,-2.415807545E-1,3.487107754E-1,1.280761415E0
3.326050017E2,-9.328666925E-1,6.705768704E-1,2.326749116E-1,1.172199309E0
3.328053413E2,6.715040803E-1,1.754051894E-1,7.521345019E-1,1.023421233E0
3.330056803E2,-5.591632724E-1,-3.750172853E-1,-1.580503304E-3,6.732785660E-1
3.332060193E2,4.595982432E-1,7.392011583E-2,8.235000819E-2,4.727327496E-1
3.334063593E2,-2.096771151E-1,-1.605212390E-1,6.778539419E-1,7.274733860E-1
3.336066983E2,5.839550495E-1,-8.281380534E-1,1.071063280E-1,1.018964131E0
3.338070375E2,5.782967210E-1,-1.906329393E-1,-9.563920498E-1,1.133778536E0
3.340073775E2,-5.639451742E-1,4.905841351E-1,-7.723451853E-1,1.074813490E0
3.342077165E2,-6.351878047E-1,3.802448884E-2,1.601362675E-1,6.561654008E-1
3.344080555E2,7.282404900E-1,3.731453419E-1,-1.724766195E-1,8.362534554E-1
3.346083945E2,9.612266421E-1,-1.383421868E-1,-3.137261793E-2,9.716375144E-1
3.348087348E2,-7.455099821E-1,5.431106091E-1,4.014964998E-1,1.005959098E0
3.350090738E2,3.427150249E-1,-2.491287589E-1,3.038309216E-1,5.213750625E-1
3.352094128E2,-7.912694663E-2,-3.436420858E-2,-5.462730527E-1,5.530426933E-1
3.354097518E2,7.384903729E-2,1.393000036E-1,-2.146960050E-1,2.663691909E-1
3.356100908E2,4.956989288E-1,-6.460343599E-1,1.408750266E-1,8.263919139E-1
3.358104298E2,1.522199959E-1,-4.905104171E-3,6.847879887E-1,7.015194770E-1
3.360107688E2,6.916312575E-1,-4.724675119E-1,-1.580707133E-1,8.523882311E-1
3.362111078E2,-1.760906458E0,8.431497812E-1,-3.906797171E-1,1.991060960E0
3.364114468E2,-3.688454032E-1,-1.087903231E-1,-7.552050948E-1,8.474768440E-1
3.366117858E2,-1.059747100E0,-5.355014205E-1,1.737664700E0,2.104591242E0
3.368121257E2,6.388456225E-1,1.553783268E-1,8.362426609E-2,6.627663025E-1
3.370124647E2,-6.181699038E-2,-1.639645994E-1,7.940977812E-2,1.923841028E-1
3.372128047E2,1.285808384E-1,-6.816320419E-1,-1.840961874E-1,7.176675266E-1
3.374131437E2,-3.691873979E-3,-3.276948929E-1,-1.479526013E-1,3.595657728E-1
3.376134827E2,6.103053093E-1,-1.979350150E-1,-3.554797769E-1,7.334962253E-1
3.378138210E2,3.864996433E-1,4.654986858E-1,2.097613662E-1,6.403677315E-1
3.380141600E2,-2.713595033E-1,4.947024211E-2,7.501330376E-1,7.992389248E-1
3.382144990E2,1.419712901E-1,-6.808021069E-1,-1.021918535E0,1.236108753E0
3.384148380E2,-1.717859060E-1,3.617792726E-1,-4.665972292E-1,6.149045567E-1
3.386151770E2,-4.989784062E-1,6.692939997E-1,3.491897285E-1,9.049129098E-1
3.388155159E2,4.663788676E-1,4.587249756E-1,1.008249164E0,1.201875296E0
3.390158549E2,9.231410921E-2,1.946325749E-1,6.727020144E-1,7.063509993E-1
3.392161939E2,-2.558063269E-1,1.361991651E-2,8.826518804E-2,2.709485605E-1
3.394165319E2,8.398848772E-1,-1.303370357E0,-7.645019293E-1,1.728769532E0
3.396168709E2,-2.127659740E-3,-4.118090868E-1,3.046655096E-2,4.129400218E-1
3.398172108E2,2.591494322E-1,1.097235158E-1,-1.754607856E-1,3.316386066E-1
3.400175498E2,6.653600931E-2,1.507694721E-1,5.593182445E-1,5.830912217E-1
3.402178888E2,-4.493312836E-1,-2.024430037E-2,5.411606431E-1,7.036783894E-1
3.404182278E2,-9.507547617E-1,2.325301319E-1,-5.049135089E-1,1.101336702E0
3.406185668E2,2.191247046E-1,1.185202505E-2,-9.694953561E-1,9.940208007E-1
3.408189048E2,-4.190156460E-1,3.465838730E-1,7.587333769E-2,5.490457686E-1
3.410192428E2,-6.052412987E-1,7.548191547E-1,1.423699141E0,1.721333271E0
3.412195818E2,4.618138075E-1,4.783191159E-2,4.275849760E-1,6.311804783E-1
3.414199208E2,-3.094942570E-1,-1.007564217E-1,-8.782054298E-3,3.256004854E-1
3.416202598E2,-2.747822404E-1,2.943127155E-1,4.154212475E-1,5.785326845E-1
3.418205998E2,-2.943454385E-1,-1.377991587E-1,-9.887631238E-2,3.397121877E-1
3.420209388E2,-8.062765002E-1,-6.960023642E-1,7.024762630E-1,1.275920838E0
3.422212778E2,-5.500781536E-1,-4.383566603E-2,1.124909520E0,1.252968064E0
3.424216158E2,4.043735266E-1,-1.725192815E-1,-8.906785250E-1,9.932719096E-1
3.426219548E2,-8.962868452E-1,-6.028444171E-1,-2.915732563E-1,1.118823697E0
3.428222927E2,8.199895732E-3,-8.740504384E-1,-5.004020333E-1,1.007190946E0
3.430226317E2,-4.385659099E-1,-9.572766423E-1,4.968238771E-1,1.164282007E0
3.432229707E2,1.069437265E0,5.002801418E-1,-5.490777493E-1,1.302099328E0
3.434233097E2,-7.011098266E-1,8.210077286E-1,4.637952149E-2,1.080629326E0
3.436236477E2,4.600473940E-1,-2.920425236E-1,2.587898374E-1,6.032450748E-1
3.438239870E2,7.202066481E-2,-2.256910689E-2,-6.719352007E-1,6.761606722E-1
3.440243260E2,-6.179704070E-1,6.802332997E-1,4.699100554E-1,1.032191952E0
3.442246650E2,4.252957404E-1,4.032872319E-1,4.953170419E-1,7.673695525E-1
3.444250040E2,-2.157683074E-1,2.459480166E-1,9.248313308E-1,9.809991742E-1
3.446253420E2,-1.431339234E-1,-2.079066783E-1,-2.069591545E-2,2.532603953E-1
3.448256808E2,7.288669050E-2,6.666793227E-1,2.383335866E-2,6.710751210E-1
3.450260198E2,-8.755505085E-1,6.447209716E-1,-3.939380050E-1,1.156477832E0
3.452263588E2,-3.247315586E-1,-3.719314933E-1,4.248681068E-1,6.513804795E-1
3.454266968E2,5.577219725E-1,-6.025272235E-2,-6.768334508E-1,8.790834484E-1
3.456270358E2,-1.267171979E0,2.014588006E-2,3.869537711E-1,1.325090149E0
3.458273757E2,8.346381187E-1,4.645248652E-1,-2.813455462E-1,9.957707849E-1
3.460277147E2,-2.824653089E-1,1.161702633E0,2.112658322E-1,1.214072860E0
3.462280527E2,4.271978736E-1,-1.756591373E-3,1.241979655E-2,4.273819839E-1
3.464283917E2,7.413340807E-1,-2.314836681E-1,-9.450121969E-2,7.823626961E-1
3.466287307E2,-5.962440968E-1,3.345566392E-1,8.691048026E-1,1.105793075E0
3.468290678E2,-1.760159619E-2,-1.149022818E0,-4.489140511E-1,1.233728932E0
3.470294068E2,2.850828767E-1,5.318582803E-2,-6.146635413E-1,6.796412641E-1
3.472297458E2,8.031443506E-2,-2.242626399E-1,-4.687925428E-2,2.427793332E-1
3.474300848E2,-2.712051570E-1,5.227660537E-1,5.105968714E-1,7.794522109E-1
3.476304228E2,4.096636772E-1,-2.431709915E-1,4.094209373E-1,6.281575944E-1
3.478307620E2,-6.008034348E-1,-1.968595833E-1,1.726677418E-1,6.553873754E-1
3.480311010E2,1.242872238E0,-1.772212237E-1,-1.549165994E-1,1.264965579E0
3.482314390E2,-1.565154046E-1,-4.643258452E-1,-4.656044543E-1,6.759312615E-1
3.484317780E2,1.118432544E-2,1.866564006E-1,1.167971920E-2,1.873555893E-1
3.486321170E2,3.296654522E-1,7.335422039E-1,-4.182866812E-1,9.064917115E-1
3.488324550E2,-6.494147778E-1,-2.438378483E-1,1.258587956E0,1.437094323E0
3.490327940E2,6.376996636E-1,-2.445332855E-1,-8.765680194E-1,1.111228546E0
3.492331320E2,-2.409760654E-1,3.831592798E-1,-9.949855804E-1,1.093104205E0
3.494334710E2,-6.948975921E-1,1.341174729E-2,-1.101161763E-1,7.036960357E-1
3.496338100E2,-4.284651279E-1,8.319295198E-2,5.704165436E-3,4.365042619E-1
3.498341477E2,4.259283543E-1,-1.378182322E-1,1.161375195E-1,4.624897313E-1
3.500344867E2,-8.086613417E-1,6.186645031E-1,5.347550511E-1,1.150061693E0
3.502348247E2,1.195786238E0,2.510631680E-1,-2.329192162E-1,1.243860443E0
3.504351637E2,6.003652513E-2,-3.713176548E-1,-5.471119285E-1,6.639372315E-1
3.506355017E2,-1.605101973E-1,-1.068377733E0,-1.817765534E-1,1.095553385E0
3.508358407E2,6.020210385E-1,-6.640666723E-1,4.804219678E-2,8.976201473E-1
3.510361787E2,1.455577761E-1,2.403709106E-2,4.768931270E-1,4.991912484E-1
3.512365177E2,5.722650886E-1,4.766838551E-1,-1.088907361E0,1.319255119E0
3.514368557E2,-1.700237095E-1,-8.249957114E-2,-1.123165965E0,1.138953917E0
3.516371947E2,1.216900826E0,1.420487404E0,-1.820496559E0,2.610141721E0
3.518375333E2,-2.291682959E0,-7.495348454E-1,1.288797855E0,2.733973880E0
3.520378723E2,6.456424594E-1,1.437185407E-1,3.190203607E-1,7.343590367E-1
3.522382103E2,-4.555057883E-1,3.306683302E-1,8.861608505E-1,1.049813374E0
3.524385493E2,-1.697833240E-1,-2.709358931E-1,1.788551360E-1,3.663629279E-1
3.526388873E2,1.042167395E-1,-2.598266006E-1,-1.403051138E0,1.430707338E0
3.528392265E2,-4.829003215E-1,-3.504071236E-1,-5.187053978E-2,5.988893267E-1
3.530395645E2,9.698259830E-1,-1.128924012E0,6.635093689E-1,1.629501932E0
3.532399035E2,-3.165289760E-1,-2.035068721E-2,6.633730531E-1,7.353016732E-1
3.534402415E2,-8.279810660E-3,-6.784098595E-2,-8.103476763E-1,8.132246375E-1
3.536405805E2,-1.123890653E-1,-3.098229170E-1,-9.957438707E-1,1.048869581E0
3.538409178E2,-7.634415030E-1,1.477490813E-1,-2.269371599E-1,8.100451803E-1
3.540412558E2,3.792451620E-1,2.735440806E-2,4.268522561E-2,3.826188509E-1
3.542415948E2,1.406722069E0,1.127170250E-1,-4.695241153E-2,1.412011556E0
3.544419328E2,-1.070645332E0,2.489800304E-1,6.796674728E-1,1.292370054E0
3.546422718E2,3.084358573E-1,1.100928187E-1,-5.500116944E-1,6.401296516E-1
3.548426107E2,-3.182402253E-1,-7.202793658E-2,1.410824656E-1,3.554843552E-1
3.550429497E2,-4.153268933E-1,4.069892168E-1,4.259503186E-1,7.208122674E-1
3.552432877E2,2.173426561E-2,2.081669867E-2,2.092009068E0,2.092225526E0
3.554436267E2,3.602094352E-1,6.601393223E-1,1.326775998E-1,7.636347998E-1
3.556439647E2,3.537454009E-1,-4.455631077E-1,-6.711022854E-1,8.797957542E-1
3.558443022E2,6.272200942E-1,1.554458141E-1,-3.723869324E-1,7.458153090E-1
3.560446412E2,1.946256012E-1,4.834993780E-1,-7.703146338E-1,9.300727973E-1
3.562449792E2,4.381558672E-2,-2.076830715E-2,5.486081913E-2,7.321774168E-2
3.564453182E2,4.011138082E-1,3.114624023E-1,-2.650243044E-1,5.728341794E-1
3.566456562E2,-2.899029255E-1,-1.415751934E0,7.626803517E-1,1.634037504E0
3.568459942E2,-1.508427978E0,-1.284881234E0,-1.723862886E0,2.626400198E0
3.570463332E2,-3.627641797E-1,1.357346654E0,-2.137519360E0,2.557924315E0
3.572466712E2,-1.702503443E0,1.087158680E0,1.204141498E0,2.351677851E0
3.574470092E2,-1.519346088E-1,-7.836959362E-1,-1.176395297E0,1.421678353E0
3.576473482E2,2.305159807E0,-9.942789078E-1,-2.894467711E-1,2.527079681E0
3.578476859E2,2.676671743E-1,-3.954840004E-1,-1.322973371E-1,4.955359686E-1
3.580480239E2,-1.785417348E-1,-1.815423965E-1,-8.710009456E-1,9.074565775E-1
3.582483619E2,-1.098487020E0,-1.781672955E0,-8.817905188E-1,2.271252247E0
3.584487009E2,5.912341475E-1,2.081168145E-1,4.519899487E-1,7.727647375E-1
3.586490389E2,5.855808258E-1,2.839604616E-1,6.632376313E-1,9.292053610E-1
3.588493767E2,-2.947329194E-4,5.253199935E-1,5.503910184E-1,7.608491674E-1
3.590497147E2,-2.616371214E-1,-7.974247336E-1,-3.245801926E-1,8.998291452E-1
3.592500537E2,6.799089909E-1,-5.058081746E-1,-8.462772965E-1,1.197624068E0
3.594503917E2,4.378495514E-1,-5.960255861E-1,-1.602889225E-2,7.397402614E-1
3.596507297E2,-1.625319123E-1,5.667094588E-1,5.854025483E-1,8.308263217E-1
3.598510697E2,2.847261727E-1,1.278464943E-1,6.466226578E-1,7.180073684E-1
3.600514077E2,1.625837386E-1,8.344619274E-1,6.814686656E-1,1.089568595E0
3.602517457E2,-2.574787140E-1,-5.799974203E-1,-1.830663979E-1,6.604586299E-1
3.604520837E2,8.849888295E-2,-3.537608981E-1,-1.115028858E0,1.173144569E0
3.606524217E2,1.769001484E-1,9.633147717E-2,-7.459970117E-1,7.727127263E-1
3.608527588E2,3.457210213E-2,-1.022027254E0,-1.306462884E-1,1.030923562E0
3.610530978E2,6.471391916E-1,1.126131892E0,1.208176255E0,1.773880502E0
3.612534358E2,-3.566012979E-1,3.251434267E-1,9.047444165E-2,4.909871262E-1
3.614537738E2,2.950409353E-1,-5.420283228E-2,2.520062961E-2,3.010351678E-1
3.616541118E2,7.160189152E-1,-1.260263026E-1,-4.354867041E-1,8.474753007E-1
3.618544507E2,-6.425330043E-1,4.470332563E-1,9.003907442E-1,1.193059465E0
3.620547887E2,1.838957667E-1,-1.792454273E-1,1.938000321E-1,3.217219742E-1
3.622551267E2,1.275557399E0,9.886979461E-1,-1.040732026E0,1.920336808E0
3.624554647E2,-1.034105897E0,-1.373274446E0,-4.675684273E-1,1.781538084E0
3.626558027E2,-2.200494558E-1,-2.791087627E-1,-6.550050378E-1,7.452214865E-1
3.628561403E2,2.241461277E-1,1.105329860E-2,-9.537300467E-2,2.438435400E-1
3.630564783E2,-1.003396064E-1,6.670358777E-1,3.546827435E-1,7.621054700E-1
3.632568163E2,1.851834953E-1,3.526915610E-1,7.406526804E-1,8.409819600E-1
3.634571543E2,-6.454333663E-1,7.847431302E-2,1.951279938E-1,6.788353130E-1
3.636574923E2,2.890955508E-1,-4.986975789E-1,-1.722901464E-1,6.016306236E-1
3.638578297E2,-6.651327610E-1,5.914137512E-2,-1.094869256E0,1.282434396E0
3.640581677E2,-9.447053075E-1,3.261654451E-2,-5.394264460E-1,1.088353273E0
3.642585057E2,-1.294735670E0,-2.616160512E-1,2.816164792E-1,1.350589225E0
3.644588437E2,1.606546789E-1,8.317433596E-1,7.423548102E-1,1.126364775E0
3.646591817E2,1.715023518E-1,-3.977048397E-1,1.184991971E-1,4.490258967E-1
3.648595190E2,4.086473286E-1,2.669648640E-2,-8.540784717E-1,9.471828637E-1
3.650598570E2,3.831444085E-1,-1.614692658E-1,-5.973951221E-1,7.278412556E-1
3.652601950E2,-4.010685086E-1,3.399248049E-2,1.041327268E-1,4.157584180E-1
3.654605330E2,6.598125100E-1,3.029154241E-1,6.453602910E-1,9.713908625E-1
3.656608710E2,6.957190484E-2,1.944089383E-1,4.651561975E-1,5.089257051E-1
3.658612090E2,-1.797788292E-1,-9.442767501E-2,-1.608390063E-1,2.590486425E-1
3.660615470E2,4.488315284E-1,3.292497694E-1,-6.059478968E-2,5.599347106E-1
3.662618840E2,-1.482763588E-1,-2.178846747E-1,-8.239147663E-1,8.650405495E-1
3.664622220E2,-2.903182209E-1,2.151010782E-1,2.358707637E-1,4.314952611E-1
3.666625600E2,1.413064837E0,6.848855615E-1,1.232349873E0,1.996122911E0
3.668628982E2,-7.343853712E-1,6.748529673E-1,-2.316826433E-1,1.023926388E0
3.670632352E2,8.157791495E-1,1.602543443E-1,-8.295335770E-1,1.174437325E0
3.672635732E2,-2.175843716E0,2.928646505E-1,-1.388424277E0,2.597650391E0
3.674639112E2,7.849820256E-1,1.654072404E-1,7.121796608E-1,1.072733054E0
3.676642492E2,-7.714101672E-2,1.683934480E-1,1.040329218E0,1.056689156E0
3.678645865E2,-3.791096210E-1,5.667499304E-1,-6.608114392E-2,6.850520462E-1
3.680649245E2,-1.531513184E-1,-4.625461102E-1,-1.688985527E-1,5.156849343E-1
3.682652625E2,1.288109899E0,2.200249434E-1,-7.853834890E-3,1.306789872E0
3.684656005E2,-1.476484388E-1,-9.473668784E-2,-2.123852074E-1,2.754679252E-1
3.686659385E2,-1.647618711E-1,-4.592962265E-1,1.314612292E-2,4.881314561E-1
3.688662753E2,1.560335636E0,-3.061211295E-2,8.331958055E-1,1.769123978E0
3.690666133E2,1.886441708E-1,2.899037898E-1,2.375824898E-1,4.196144301E-1
3.692669513E2,-4.559476376E-1,6.034714580E-1,3.146055639E-1,8.191719658E-1
3.694672883E2,1.160904288E0,6.706262231E-1,2.350653410E-1,1.361137029E0
3.696676263E2,2.168121636E-1,-1.821324527E-1,-3.040874004E-1,4.155103991E-1
3.698679636E2,-5.118421912E-1,1.449967176E-1,5.646581650E-1,7.757869038E-1
3.700683016E2,8.676151633E-1,3.834547997E-1,8.389496803E-1,1.266345222E0
3.702686386E2,1.936338842E-2,4.275179505E-1,4.584548473E-1,6.271581825E-1
3.704689766E2,8.164188862E-1,-1.931096315E0,1.106166560E-2,2.096615162E0
3.706693146E2,1.157430336E-1,1.936960816E-1,-5.384606719E-1,5.838274720E-1
3.708696522E2,-7.982383370E-1,2.133951932E-1,-2.266477197E-1,8.567911881E-1
3.710699902E2,-8.342875838E-1,7.706311941E-1,8.127998710E-1,1.396621581E0
3.712703282E2,-8.522606641E-2,2.415905297E-1,7.103189230E-1,7.551042569E-1
3.714706652E2,-6.774193048E-1,-1.640994102E-1,1.445387900E-1,7.118405670E-1
3.716710032E2,1.908977032E-1,-1.385434151E0,-5.342758894E-1,1.497104019E0
3.718713397E2,-3.431066275E-1,3.030712605E-1,-7.554600835E-1,8.833426767E-1
3.720716777E2,-5.060043931E-1,-1.249431148E-1,-3.264712691E-1,6.150079002E-1
3.722720147E2,8.712534904E-1,-4.659995735E-1,2.825540900E-1,1.027655127E0
3.724723527E2,-5.014350414E-1,-1.344217062E-1,-1.945409328E-1,5.543937864E-1
3.726726907E2,-3.067142665E-1,-6.589406729E-2,-2.754707336E-1,4.174922688E-1
3.728730283E2,1.958367705E0,-4.552072883E-1,-1.694641411E-1,2.017705588E0
3.730733663E2,1.024992391E-1,-2.726752758E-1,-8.746448159E-1,9.218793056E-1
3.732737033E2,2.501274347E-1,-1.106737033E-1,5.879618526E-1,6.484686132E-1
3.734740413E2,5.420497060E-1,7.666385174E-1,1.377938151E0,1.667412981E0
3.736743783E2,7.535748482E-1,-6.669536829E-1,3.808477223E-1,1.075986642E0
3.738747156E2,-1.650658697E-1,-3.382544518E-1,-5.497666001E-1,6.662628086E-1
3.740750536E2,8.902969360E-1,-2.701366544E-1,-5.291860104E-1,1.070345869E0
3.742753906E2,-5.567032695E-1,-3.548428714E-1,-1.747754663E-1,6.829190708E-1
3.744757286E2,2.091825753E-2,4.141741395E-1,6.561540365E-1,7.762189839E-1
3.746760656E2,-6.135839224E-1,2.342775613E-1,5.833348632E-1,8.784365476E-1
3.748764022E2,7.852186263E-2,5.550519228E-1,1.548881978E-1,5.815829036E-1
3.750767402E2,1.994144320E-1,-3.448031247E-1,-6.642596722E-1,7.745296783E-1
3.752770772E2,4.418971390E-2,-5.681776404E-1,-4.912821949E-1,7.524205984E-1
3.754774152E2,1.162731368E-2,5.706378818E-1,5.174103379E-2,5.730967816E-1
3.756777522E2,1.101184368E0,-6.187994480E-1,1.445112228E0,1.919340804E0
3.758780904E2,3.761136532E-2,4.228216112E-1,4.243142307E-1,6.001960480E-1
3.760784284E2,-4.089460671E-1,-3.674007356E-1,-2.436054796E-1,6.013017678E-1
3.762787654E2,6.522809863E-1,-9.503321350E-2,1.177747771E-1,6.696063731E-1
3.764791024E2,1.915021390E-1,3.616514504E-1,-1.462111473E-1,4.345601689E-1
3.766794404E2,2.924695909E-1,-2.448381335E-1,1.958884150E-1,4.287848462E-1