"time","Acceleration x","Acceleration y","Acceleration z","abs Acceleration"
5.772740775E1,2.395019531E-2,2.877017212E0,1.032642609E1,1.071974241E1
5.792778175E1,2.108665009E0,2.119143219E0,1.266097137E1,1.300912880E1
5.812815475E1,3.382965088E-1,3.186723175E0,7.909102936E0,8.533672033E0
5.832852875E1,-4.903802490E-1,3.145708466E0,1.185744232E1,1.227741394E1
5.852890175E1,-1.307381287E0,4.911286926E-1,6.738836517E0,6.882032464E0
5.872927383E1,5.688171387E-2,2.123783569E0,6.393504639E0,6.737254169E0
5.892964783E1,1.182840271E0,4.381538544E0,1.327274918E1,1.402721861E1
5.913002083E1,1.703757019E0,2.480042725E0,8.101902008E0,8.642581561E0
5.933039383E1,2.794688416E-1,2.624642029E0,7.492369537E0,7.943705048E0
5.953076783E1,7.137158203E-1,4.887785797E0,1.121033798E1,1.225036807E1
5.973114121E1,1.257984009E0,1.813179474E0,1.068328400E1,1.090883589E1
5.993151421E1,3.008743286E-1,3.473526764E0,8.733887787E0,9.404079403E0
6.013188721E1,1.352587280E0,4.599934387E-1,1.586341187E1,1.592761509E1
6.033226021E1,1.275347900E-1,2.932252350E0,5.549260254E0,6.277631586E0
6.053263321E1,4.302053833E-1,3.527863770E0,1.245395187E1,1.295113187E1
6.073300637E1,-1.841320953E0,1.644779663E0,6.530170441E0,6.981324300E0
6.093337837E1,8.723858643E-1,2.483934631E0,5.145849152E0,5.780203443E0
6.113375137E1,8.180488586E-1,3.549718323E0,1.433628754E1,1.479185061E1
6.133412437E1,2.224973145E0,1.009201355E0,8.846154327E0,9.177332905E0
6.153449737E1,-6.372248840E-1,2.476001129E0,7.628286896E0,8.045333934E0
6.173486896E1,1.383872223E0,4.372706909E0,1.283580780E1,1.363061370E1
6.193524196E1,2.927911377E-1,2.474504242E0,9.205556946E0,9.536832628E0
6.213561396E1,-4.096980286E-1,2.196232910E0,8.878936157E0,9.155697612E0
6.233598696E1,2.640509033E-1,-7.150630188E-1,1.761866180E1,1.763514337E1
6.253635896E1,2.095642090E-3,2.692451019E0,3.221900024E0,4.198801811E0
6.273673237E1,-4.185296631E-1,3.704047394E0,1.170431076E1,1.228356726E1
6.293710437E1,-1.559906158E0,1.143771515E0,6.888225861E0,7.154661139E0
6.313747637E1,8.087681580E-1,2.683469696E0,4.986580353E0,5.720235935E0
6.333784937E1,9.375004578E-1,4.439168701E0,1.248733246E1,1.328603017E1
6.353822137E1,6.089337158E-1,2.027234344E0,6.546037445E0,6.879759123E0
6.373859300E1,-2.228116608E0,2.494861908E0,1.009066635E1,1.063063436E1
6.393896500E1,4.978646851E-1,1.997446289E0,1.622595795E1,1.635601945E1
6.413933700E1,8.966354370E-2,1.557960205E0,6.173162842E0,6.367355732E0
6.433970900E1,-7.226971436E-1,3.265609131E0,9.112151184E0,9.706585051E0
6.454008100E1,6.024971008E-1,-7.261399841E-1,1.382959122E1,1.386174142E1
6.474045300E1,-8.442443848E-1,2.984643402E0,4.030817871E0,5.086092560E0
6.494082500E1,-1.160686340E0,3.973636780E0,1.448537750E1,1.506529600E1
6.514119700E1,-1.324595490E0,1.779050446E0,7.375462646E0,7.701754537E0
6.534156900E1,1.037642212E0,3.023113403E0,5.685027924E0,6.521921381E0
6.554194000E1,5.322930908E-1,3.775299225E0,9.940827942E0,1.064689064E1
6.574231258E1,1.250798950E0,2.352507935E0,7.108268280E0,7.591196845E0
6.594268458E1,-1.061742096E0,2.926863556E0,1.059421921E1,1.104225100E1
6.614305558E1,-1.663640442E0,1.803449707E0,1.470721619E1,1.491047747E1
6.634342758E1,-5.140310669E-1,1.178948364E0,6.745273132E0,6.866793780E0
6.654379858E1,-1.131497040E0,3.581302643E0,1.196027847E1,1.253611883E1
6.674417083E1,-2.076631622E0,-2.439926147E-1,1.335986801E1,1.352249994E1
6.694454183E1,-4.074526978E-1,3.601959686E0,3.122057648E0,4.784075171E0
6.714491383E1,-1.702858887E0,3.445235596E0,1.494881378E1,1.543490882E1
6.734528483E1,-9.562115479E-1,2.536026306E0,9.347461853E0,9.732461818E0
6.754565583E1,9.704319763E-1,4.574636993E0,4.922812958E0,6.789928517E0
6.774602733E1,2.034269714E-1,4.786596222E0,1.323652451E1,1.407687703E1
6.794639833E1,1.066831512E0,2.351310425E0,7.441325684E0,7.876554965E0
6.814676933E1,-9.428892517E-1,3.554208984E0,1.173245224E1,1.229519732E1
6.834714033E1,-9.355545044E-2,3.752995605E0,1.309372147E1,1.362128006E1
6.854751133E1,-2.538720703E-1,1.648072815E0,9.587412872E0,9.731345262E0
6.874788200E1,1.335223389E-1,3.166515198E0,9.891730042E0,1.038705781E1
6.894825300E1,9.758207703E-1,7.929011536E-1,1.240156082E1,1.246513655E1
6.914862400E1,-4.471202087E-1,2.960244141E0,4.365072784E0,5.293091938E0
6.934899500E1,-1.003662872E0,3.455564117E0,1.305120987E1,1.353818088E1
6.954936600E1,-1.662442932E0,2.922223206E0,6.762637024E0,7.552242348E0
6.974973733E1,1.401236115E0,3.465892639E0,5.100792847E0,6.324077964E0
6.995010833E1,-1.052311707E0,4.514162750E0,1.261831009E1,1.344272200E1
7.015047933E1,1.585502930E0,2.417472839E0,7.620353394E0,8.150323939E0
7.035084933E1,-9.104067993E-1,3.016227722E0,1.042731628E1,1.089290572E1
7.055122033E1,5.731581116E-1,4.623884583E0,1.196432007E1,1.283953946E1
7.075159096E1,-4.516108704E-1,1.369651794E0,1.087683151E1,1.097202635E1
7.095196096E1,-1.196012878E-1,3.734434204E0,9.163644104E0,9.896094005E0
7.115233196E1,-6.875202942E-1,-4.743635559E-1,1.239048386E1,1.241860681E1
7.135270196E1,-1.049467621E0,3.123704224E0,5.006339264E0,5.993525105E0
7.155307296E1,-1.349892883E0,3.165317688E0,1.215232910E1,1.263014447E1
7.175344371E1,-1.951940918E-1,2.091001740E0,4.857997742E0,5.292497621E0
7.195381371E1,3.897894287E-1,2.845732269E0,5.259313202E0,5.992537301E0
7.215418371E1,5.533992004E-1,5.275479584E0,1.237491623E1,1.346385856E1
7.235455471E1,1.440604248E0,1.923649750E0,5.209466858E0,5.737099782E0
7.255492471E1,3.671864319E-1,3.938310242E0,1.165311722E1,1.230610638E1
7.275529400E1,-8.687933350E-1,1.421893158E0,1.448687439E1,1.458239046E1
7.295566400E1,-8.577163696E-2,1.630259857E0,7.816445618E0,7.985106516E0
7.315603400E1,1.498384094E-1,3.465742950E0,1.001761826E1,1.060124999E1
7.335640400E1,-1.203796692E0,-1.067430267E0,1.275811935E1,1.285916573E1
7.355677400E1,2.480342102E-1,3.171903992E0,4.317322083E0,5.362999708E0
7.375714458E1,-1.298100586E0,2.917133789E0,1.387015686E1,1.423291910E1
7.395751458E1,-2.725831604E-1,1.844464417E0,5.953270111E0,6.238411302E0
7.415788458E1,1.494641876E0,3.212918701E0,5.802084503E0,6.798601731E0
7.435825358E1,2.332150269E-1,3.326831818E0,1.187286026E1,1.233235622E1
7.455862358E1,5.625302124E-1,2.943628693E0,8.133037262E0,8.667622813E0
7.475899321E1,-6.512956238E-1,3.000510406E0,1.079420334E1,1.122239165E1
7.495936221E1,-6.815327454E-1,2.064806213E0,1.389111328E1,1.406026101E1
7.515973221E1,2.649490356E-1,1.753753052E0,7.210655365E0,7.425590788E0
7.536010121E1,-3.255729675E-1,3.748504944E0,1.069870193E1,1.134105419E1
7.556047121E1,-1.712438965E0,-7.005432129E-1,1.102921463E1,1.118332613E1
7.576083987E1,-3.570075989E-1,2.986289978E0,4.373155975E0,5.307530070E0
7.596120987E1,-7.039860535E-1,2.327958984E0,1.204649918E1,1.228955377E1
7.616157887E1,-1.028511200E0,2.173330536E0,5.781128082E0,6.261201387E0
7.636194788E1,1.460213470E0,3.653003540E0,4.206103363E0,5.759163459E0
7.656231787E1,3.706292725E-1,3.641178131E0,1.442280762E1,1.487995040E1
7.676268725E1,2.200274506E0,2.486479340E0,5.662424927E0,6.564056936E0
7.696305625E1,-1.069974976E0,2.756966858E0,1.182196609E1,1.218624614E1
7.716342525E1,1.159039764E0,4.140090637E0,1.387689285E1,1.452762468E1
7.736379425E1,-4.930746460E-1,5.605842590E-1,9.006470947E0,9.037361133E0
7.756416325E1,1.241667938E0,3.736080780E0,1.191896439E1,1.255236037E1
7.776453196E1,-7.153623962E-1,-2.356100464E-1,1.029798523E1,1.032549056E1
7.796490096E1,4.724176025E-1,2.840942230E0,3.852688293E0,4.810128713E0
7.816526996E1,-8.753796387E-1,3.498524780E0,1.451366867E1,1.495501733E1
7.836563896E1,-1.057700500E0,3.371139679E0,7.430997162E0,8.228185213E0
7.856600696E1,1.230890350E0,3.645818481E0,5.131628723E0,6.414101403E0
7.876637600E1,1.782792664E-1,5.018014984E0,1.212328949E1,1.312198178E1
7.896674500E1,2.647993469E-1,1.502126312E0,8.084687805E0,8.227312991E0
7.916711300E1,-1.076710968E0,3.289858704E0,1.172451874E1,1.222484423E1
7.936748200E1,-2.488425293E0,5.192701721E-1,1.446397202E1,1.468565247E1
7.956785100E1,-7.923023987E-1,9.526190186E-1,7.584128723E0,7.684675307E0
7.976821900E1,7.444020081E-1,4.062551880E0,1.047192352E1,1.125698203E1
7.996858800E1,6.400689697E-1,9.373507690E-1,1.109702362E1,1.115492035E1
8.016895600E1,-5.551954651E-1,2.635569305E0,5.349725189E0,5.989493064E0
8.036932400E1,2.896476746E-1,3.062481537E0,1.433344345E1,1.465981890E1
8.056969300E1,-8.617579651E-1,3.172951813E0,6.310128021E0,7.115333136E0
8.077006071E1,8.720864868E-1,3.287463684E0,6.451733551E0,7.293340670E0
8.097042871E1,1.049467621E0,4.119134216E0,1.275497589E1,1.344462937E1
8.117079671E1,1.560804291E0,1.665885773E0,7.301217041E0,7.649774880E0
8.137116471E1,-4.779560852E-1,2.901715851E0,9.304351501E0,9.758040467E0
8.157153271E1,5.857319641E-1,2.587219849E0,1.421653656E1,1.446190514E1
8.177190146E1,6.212081909E-2,1.184187469E0,8.465795288E0,8.548441309E0
8.197226946E1,8.921447754E-2,3.236719208E0,9.955198059E0,1.046853757E1
8.217263746E1,7.487429810E-1,3.104544067E-1,1.100346817E1,1.103328191E1
8.237300546E1,1.954934692E-1,3.104095001E0,4.520898743E0,5.487453773E0
8.257337346E1,-4.167333984E-1,3.244203644E0,1.294897247E1,1.335568838E1
8.277374158E1,-1.427431641E0,2.411784668E0,4.610711975E0,5.395640026E0
8.297410958E1,7.680528259E-1,2.750230865E0,5.367687836E0,6.079946353E0
8.317447658E1,9.229806519E-1,4.303999786E0,1.204739731E1,1.282638255E1
8.337484458E1,3.270249481E0,2.116299133E0,6.599326630E0,7.663182476E0
8.357521258E1,-7.553292847E-1,4.023782501E0,1.216699860E1,1.283733628E1
8.377557912E1,2.715802460E0,4.070186005E0,1.321646622E1,1.409315353E1
8.397594712E1,6.777905273E-1,1.396745453E0,9.464219055E0,9.590711141E0
8.417631412E1,-2.237846375E-1,3.365900574E0,1.013003448E1,1.067693612E1
8.437668212E1,7.873626709E-1,1.137634277E-2,1.383348312E1,1.385587690E1
8.457704912E1,-1.003962250E0,2.726430359E0,4.690496063E0,5.517437450E0
8.477741575E1,-9.970765686E-1,3.501518555E0,1.369756577E1,1.417314721E1
8.497778375E1,-4.438270569E-1,2.341131592E0,7.057074738E0,7.448502094E0
8.517815075E1,1.277144165E0,4.456981659E0,5.266348572E0,7.016424303E0
8.537851775E1,7.493417358E-1,4.775070190E0,1.292322601E1,1.379755699E1
8.557888475E1,2.455643463E0,2.177821198E0,4.279899902E0,5.393573320E0
8.577925233E1,9.204359436E-1,4.041745148E0,1.195578781E1,1.265400207E1
8.597962033E1,2.865042114E-1,4.793032837E-1,1.617895569E1,1.618858930E1
8.617998733E1,-4.590953064E-1,1.448088684E0,6.040239258E0,6.228340038E0
8.638035433E1,6.346801758E-1,3.523672485E0,1.158321259E1,1.212393915E1
8.658072133E1,1.651216278E0,9.144483948E-1,7.241790619E0,7.483733188E0
8.678108688E1,7.204518127E-1,3.600612488E0,5.796546021E0,6.861734975E0
8.698145387E1,-2.444416809E-1,4.242328033E0,1.258058853E1,1.327886692E1
8.718182087E1,-4.667294312E-1,2.073039093E0,8.967551880E0,9.215872946E0
8.738218787E1,1.645977173E0,3.437152405E0,8.545279999E0,9.356552130E0
8.758255487E1,2.589465179E0,3.866160278E0,1.362047607E1,1.439339757E1
8.778292175E1,-5.242098999E-1,1.793270874E0,6.367309113E0,6.635754801E0
8.798328875E1,-6.930587769E-1,3.172203369E0,1.182600769E1,1.226367248E1
8.818365575E1,-1.216220856E0,3.135829010E0,1.228240860E1,1.273460552E1
8.838402175E1,-9.928852844E-1,3.929328918E-1,8.174800415E0,8.244245221E0
8.858438875E1,-9.099577332E-1,2.890638885E0,9.170529785E0,9.658283118E0
8.878475433E1,-5.366340637E-1,2.927911377E-1,1.217747681E1,1.219281117E1
8.898512133E1,-6.288423157E-1,2.786605225E0,5.185666351E0,5.920451574E0
8.918548733E1,-7.993377686E-1,3.594175873E0,1.361029724E1,1.409954723E1
8.938585333E1,-1.860780487E0,1.485810242E0,6.585106201E0,7.002410997E0
8.958622033E1,5.891748047E-1,3.143313446E0,5.277575226E0,6.170927534E0
8.978658675E1,1.951940918E-1,3.522924042E0,1.373244324E1,1.417847283E1
8.998695275E1,1.607207794E0,2.477498016E0,4.568200378E0,5.439629400E0
9.018731875E1,-1.360071716E0,3.293750610E0,9.655072174E0,1.029169601E1
9.038768575E1,1.811233521E-1,4.372557220E0,1.280766632E1,1.353471015E1
9.058805175E1,-2.697390747E-1,1.517693939E0,1.024978546E1,1.036504974E1
9.078841708E1,1.813778229E0,3.839365997E0,9.606423340E0,1.050304204E1
9.098878308E1,-1.240919495E-1,1.035097504E0,1.561148575E1,1.564625556E1
9.118914908E1,-2.401007080E-1,2.841241608E0,5.403613129E0,6.109773897E0
9.138951508E1,-4.941224670E-1,4.084855499E0,1.030082932E1,1.109221736E1
9.158988108E1,-3.413651276E0,-3.472778320E-2,9.636361084E0,1.022319304E1
9.179024662E1,5.418731689E-2,1.836680603E0,6.114484863E0,6.384610955E0
9.199061162E1,1.013242950E0,4.313130798E0,1.151420609E1,1.233720796E1
9.219097762E1,1.485810242E0,2.154918823E0,6.384074249E0,6.899834145E0
9.239134362E1,-4.764591980E-1,2.713108063E0,7.745044098E0,8.220320967E0
9.259170862E1,1.204096069E0,4.218677216E0,1.467054245E1,1.531247532E1
9.279207508E1,3.558100891E-1,2.038910065E0,9.643546143E0,9.863150474E0
9.299244008E1,1.312620392E0,3.424877930E0,7.145091705E0,8.031506497E0
9.319280608E1,-6.387217712E-1,7.244934082E-2,1.373902954E1,1.375405930E1
9.339317108E1,-2.447410583E-1,3.091521149E0,4.392914886E0,5.377276485E0
9.359353708E1,-3.869453430E-1,2.988984375E0,1.278356644E1,1.313405212E1
9.379390200E1,-2.051783295E0,2.041155396E0,6.505322113E0,7.120066420E0
9.399426800E1,5.436694336E-1,2.863994293E0,4.354145508E0,5.239906761E0
9.419463300E1,1.059496765E0,4.568799133E0,1.322005875E1,1.402734516E1
9.439499800E1,9.479786682E-1,1.730401611E0,7.085515594E0,7.355099220E0
9.459536300E1,6.274951172E-1,3.308420105E0,1.080827408E1,1.132069708E1
9.479572821E1,1.145268402E0,3.128643951E0,1.563408875E1,1.598514259E1
9.499609421E1,1.140178986E0,2.384691010E0,7.997119904E0,8.422629404E0
9.519645921E1,3.125500488E-1,2.703977051E0,9.489965515E0,9.872619961E0
9.539682421E1,2.779719543E-1,-7.080276489E-2,1.131033005E1,1.131396691E1
9.559718921E1,1.110690308E-1,2.574645996E0,4.800666962E0,5.448627498E0
9.579755471E1,8.583151245E-1,3.127296753E0,1.304522232E1,1.344226600E1
9.599791971E1,-1.708547058E0,1.854942627E0,7.718698883E0,8.120237536E0
9.619828471E1,1.097068634E0,3.244652710E0,4.112098846E0,5.351699517E0
9.639864971E1,1.734892273E0,4.222718811E0,1.294508057E1,1.372648230E1
9.659901371E1,2.110610962E0,2.596650238E0,4.545148315E0,5.644080465E0
9.679937858E1,-1.643133087E0,1.276395721E0,1.152947433E1,1.171570957E1
9.699974358E1,1.146765289E0,2.930156708E0,1.415755920E1,1.450301250E1
9.720010858E1,-4.914280701E-1,1.043330383E0,6.554719391E0,6.655402777E0
9.740047258E1,6.837780762E-1,3.753145294E0,7.009174347E0,7.980111345E0
9.760083758E1,1.827699280E-1,1.035696259E0,1.239781860E1,1.244234615E1
9.780120246E1,3.263214111E-2,3.365451508E0,3.482208710E0,4.842840716E0
9.800156646E1,7.074288940E-1,3.913461914E0,1.396730484E1,1.452243934E1
9.820193146E1,-1.296603699E0,2.304906921E0,6.160738678E0,6.704362619E0
9.840229546E1,1.229393463E0,2.702929230E0,5.171745300E0,5.963571427E0
9.860266046E1,9.565109253E-2,3.795058136E0,1.264390686E1,1.320151492E1
9.880302396E1,2.175426178E0,2.181264038E0,6.306236115E0,7.018476031E0
9.900338896E1,-3.775149536E-1,3.213667145E0,8.317902832E0,8.925115214E0
9.920375296E1,-2.379900970E0,6.396199036E-1,1.168140839E1,1.193852353E1
9.940411696E1,-2.562670898E-1,4.843927002E-1,8.779991913E0,8.797077191E0
9.960448096E1,-6.689588928E-1,2.678380280E0,9.081914063E0,9.492227871E0
9.980484675E1,-1.640887756E0,-2.151775360E0,1.099792969E1,1.132594840E1
1.000052107E2,-3.680845642E-1,1.816921692E0,3.909570007E0,4.326826588E0
1.002055747E2,-1.670526123E0,3.085982666E0,1.394425278E1,1.437901708E1
1.004059387E2,-4.120032349E0,1.736688538E0,6.693780212E0,8.049686153E0
1.006063027E2,6.950047302E-1,2.742596741E0,4.505630493E0,5.320298356E0
1.008066667E2,-6.038442993E-1,3.050955505E0,1.519370453E1,1.550875929E1
1.010070307E2,3.818559265E-1,7.774832153E-1,7.952213287E0,7.999249356E0
1.012073947E2,-2.545756073E0,2.497406616E0,9.733958130E0,1.036667038E1
1.014077587E2,-6.511459351E-2,2.896027679E0,1.340477463E1,1.371419699E1
1.016081227E2,-1.597178650E0,4.927752686E-1,1.024918671E1,1.038458643E1
1.018084859E2,2.412982178E-1,3.365900574E0,8.498876495E0,9.144310427E0
1.020088499E2,-1.117575989E0,1.004411316E-1,1.587733292E1,1.591693328E1
1.022092139E2,-1.699116669E0,2.041155396E0,6.479425964E0,7.002590494E0
1.024095769E2,-1.295106812E0,3.212619324E0,1.317575089E1,1.362345903E1
1.026099409E2,-2.235451355E0,4.876858521E-1,5.826932831E0,6.260050037E0
1.028103051E2,3.260220337E-1,2.249671783E0,4.658163300E0,5.183222822E0
1.030106681E2,-1.316661987E0,4.388424225E0,1.567794754E1,1.633370457E1
1.032110321E2,5.888754272E-1,2.373314667E0,1.462758179E0,2.849396123E0
1.034113961E2,-4.474195862E-1,4.174968109E0,4.980293427E0,6.514128154E0
1.036117591E2,5.321434021E-1,5.190007324E0,1.495090942E1,1.583505747E1
1.038121231E2,-1.379680939E0,1.686692505E0,9.776769104E0,1.001666937E1
1.040124861E2,-2.674937439E-1,6.568041687E0,3.968697052E0,7.678624929E0
1.042128491E2,6.357279968E-1,4.427193604E0,1.150866760E1,1.234721115E1
1.044132131E2,1.241368561E0,2.267185364E0,5.581892395E0,6.151312713E0
1.046135761E2,-1.759740601E0,2.890638885E0,1.494776596E1,1.532606236E1
1.048139393E2,-1.865570526E0,-4.959187317E-1,1.293864395E1,1.308184987E1
1.050143033E2,6.581813049E-1,1.816173248E0,4.794080658E0,5.168645592E0
1.052146663E2,2.267784119E-1,2.831960907E0,1.449001785E1,1.476590832E1
1.054150293E2,4.270619202E0,1.757495270E0,7.577841797E0,8.874157103E0
1.056153923E2,1.432521057E-1,3.266956329E0,5.335055695E0,6.257503023E0
1.058157550E2,1.242416382E-1,4.326303406E0,1.288670197E1,1.359409521E1
1.060161180E2,1.146016846E0,1.686093750E0,9.543853455E0,9.759170329E0
1.062164810E2,1.365610199E0,3.763623505E0,1.018916153E1,1.094754611E1
1.064168440E2,1.554667053E0,1.484463043E0,1.461410980E1,1.477135151E1
1.066172070E2,6.310876465E-1,2.064357147E0,5.379213867E0,5.796187012E0
1.068175705E2,-1.221459961E-1,2.805316315E0,1.397119675E1,1.425058096E1
1.070179335E2,-5.870791626E-1,7.316784668E-1,6.439309387E0,6.507282129E0
1.072182955E2,-5.837860107E-3,1.812281342E0,5.373974762E0,5.671331632E0
1.074186585E2,6.605763245E-1,4.137994995E0,1.127679977E1,1.203019438E1
1.076190215E2,1.515149231E0,1.982327728E0,7.866142273E0,8.252362975E0
1.078193829E2,1.273102570E0,3.033591614E0,8.311765594E0,8.939178683E0
1.080197459E2,1.038839722E-1,3.011287994E0,1.698413132E1,1.724932937E1
1.082201089E2,-8.857081604E-1,-2.823129272E-1,9.870923309E0,9.914600673E0
1.084204709E2,1.663490753E0,4.018393707E0,8.033643951E0,9.135322907E0
1.086208339E2,-8.408015442E-1,-1.573527832E0,1.596400269E1,1.606338441E1
1.088211965E2,5.927673340E-2,2.840193787E0,3.325484619E0,4.373678364E0
1.090215595E2,-1.103505249E0,1.943708038E0,1.433658691E1,1.450977082E1
1.092219215E2,-1.776954803E0,1.742825775E0,7.101681976E0,7.525217402E0
1.094222835E2,-4.572990417E-1,2.299817505E0,3.946543121E0,4.590586627E0
1.096226465E2,1.657802582E0,3.528163147E0,1.664538574E1,1.709576296E1
1.098230083E2,-4.613406372E-1,1.591939545E0,3.715423737E0,4.068351047E0
1.100233703E2,-2.491269379E0,3.732637939E0,1.387794067E1,1.458548067E1
1.102237323E2,-3.556604004E0,-3.418890381E-1,6.484066315E0,7.403339525E0
1.104240953E2,-2.670446777E-1,2.411934357E0,4.052971802E0,4.723909464E0
1.106244573E2,1.632654877E0,4.509522400E0,1.273357040E1,1.360680600E1
1.108248190E2,5.523513794E-1,1.796414337E0,5.597759399E0,5.904837577E0
1.110251810E2,-1.460063782E0,3.764821014E0,5.267845459E0,6.637458798E0
1.112255430E2,3.118016052E-1,3.649411011E0,1.313683182E1,1.363788001E1
1.114259050E2,5.120851135E-1,2.807711334E0,7.555837555E0,8.076890197E0
1.116262670E2,4.969665527E-1,4.383334808E0,5.830225983E0,7.311096690E0
1.118266292E2,3.694167938E0,4.565356293E0,1.585652618E1,1.690913296E1
1.120269902E2,-1.903890839E0,-3.040177917E-1,9.143585815E0,9.344644921E0
1.122273522E2,-1.732197876E0,2.972817993E0,1.272907974E1,1.318588743E1
1.124277142E2,-4.259392548E0,-2.223925323E0,8.615933075E0,9.865220295E0
1.126280762E2,-8.741821289E-2,1.492396545E0,6.054609375E0,6.236440016E0
1.128284373E2,-6.807843018E-1,3.889362030E0,1.169667664E1,1.234515486E1
1.130287993E2,1.178798676E0,1.361269226E0,8.858578491E0,9.039747403E0
1.132291613E2,-2.941383362E-1,2.831811218E0,6.623426514E0,7.209400177E0
1.134295223E2,5.369334412E-1,4.495152283E0,1.318218750E1,1.393788933E1
1.136298843E2,-6.750961304E-2,1.437161407E0,7.501051483E0,7.637785269E0
1.138302452E2,-1.528321838E-1,2.981499939E0,9.995314636E0,1.043163526E1
1.140306072E2,2.915936279E-1,2.129621429E0,7.819738770E0,8.109785984E0
1.142309682E2,1.524130554E0,3.582350464E0,4.277804260E0,5.784100456E0
1.144313292E2,-1.173559570E0,2.959645386E0,1.305375458E1,1.343641513E1
1.146316912E2,-9.294172668E-1,2.586770782E0,6.547684021E0,7.101222823E0
1.148320520E2,4.451742554E-1,2.929857330E0,6.718927917E0,7.343448540E0
1.150324130E2,-5.343887329E-2,1.887125702E0,1.451965622E1,1.464187542E1
1.152327750E2,-4.894821167E-1,1.408870239E0,6.831643524E0,6.992557568E0
1.154331360E2,1.019380188E-1,3.784879303E0,1.372735382E1,1.423994191E1
1.156334970E2,-2.805016937E0,-4.933740234E-1,9.233399048E0,9.662670227E0
1.158338585E2,-8.038284302E-2,2.525248718E0,4.637506256E0,5.281080076E0
1.160342205E2,3.755989380E0,6.212530975E0,1.473850113E1,1.642943739E1
1.162345815E2,1.157692566E0,1.528172150E0,4.893773346E0,5.255909032E0
1.164349425E2,-9.250762939E-2,2.470462646E0,5.593867493E0,6.115807132E0
1.166353035E2,1.301393738E0,4.702321472E0,1.409454025E1,1.491514391E1
1.168356637E2,9.984237671E-1,2.149380341E0,5.998625793E0,6.449821492E0
1.170360247E2,-3.186872864E-1,2.901416473E0,9.223369904E0,9.674209607E0
1.172363857E2,1.130149841E0,1.491648102E0,1.392329636E1,1.404850291E1
1.174367467E2,-3.327580261E-1,2.366878052E0,7.326514435E0,7.706533162E0
1.176371077E2,-4.707710266E-1,2.619402924E0,1.284643570E1,1.311921519E1
1.178374693E2,-2.449506226E0,-5.276527405E-1,7.900570679E0,8.288396420E0
1.180378303E2,3.255729675E-1,2.267933807E0,4.865631866E0,5.378093991E0
1.182381903E2,-1.315015411E0,2.238145752E0,1.387090530E1,1.411171768E1
1.184385513E2,2.494562531E0,8.951385498E-1,6.488407288E0,7.008819043E0
1.186389123E2,-3.185375977E-1,2.390678558E0,6.628665619E0,7.053794586E0
1.188392735E2,3.691473541E0,3.813769226E0,1.474314148E1,1.566946181E1
1.190396335E2,1.182540894E-1,1.247805176E0,7.612719269E0,7.715212016E0
1.192399945E2,6.548881531E-1,2.051184540E0,1.037851776E1,1.059952204E1
1.194403545E2,4.355941772E-2,-6.656657410E-1,1.263208145E1,1.264968340E1
1.196407155E2,1.238674164E0,3.085084534E0,6.749464417E0,7.523784299E0
1.198410765E2,-1.078207855E0,1.642833710E0,1.372286316E1,1.386284271E1
1.200414365E2,-6.580316162E-1,1.013242950E0,7.619305573E0,7.714498318E0
1.202417975E2,8.129594421E-1,2.692750397E0,5.471272430E0,6.151961456E0
1.204421575E2,2.600542145E0,3.085533600E0,1.508188705E1,1.561238784E1
1.206425175E2,7.164102173E-1,7.924520874E-1,6.764732666E0,6.848564226E0
1.208428785E2,1.565744019E-1,2.479294281E0,1.014664993E1,1.044633527E1
1.210432385E2,1.256337433E0,1.408271484E0,1.429512314E1,1.441915940E1
1.212435985E2,-5.742059326E-1,8.253836060E-1,7.581733704E0,7.648114572E0
1.214439595E2,1.183888092E0,3.305875397E0,1.143681702E1,1.196374467E1
1.216443195E2,1.316512299E0,5.472619629E-1,8.549920349E0,8.667977749E0
1.218446787E2,1.049317932E-1,2.410886536E0,5.447471924E0,5.958047913E0
1.220450387E2,-1.409768372E0,1.104702759E0,1.616907623E1,1.626796980E1
1.222453987E2,-1.582808533E0,1.478924561E0,6.086044006E0,6.460064423E0
1.224457587E2,7.798782349E-1,2.675536194E0,5.852529602E0,6.482191507E0
1.226461187E2,2.011666718E0,4.317621460E0,1.443852493E1,1.520393568E1
1.228464790E2,1.598076782E0,1.541195068E0,5.236710205E0,5.687905187E0
1.230468390E2,-8.641529846E-1,3.689976654E0,9.048982544E0,9.810543979E0
1.232471990E2,-1.202748871E0,-2.838098145E-1,1.549772232E1,1.554691448E1
1.234475590E2,-1.309776306E-1,1.605411530E0,7.766000519E0,7.931283968E0
1.236479190E2,-8.446934509E-1,2.252066803E0,1.261232254E1,1.283962584E1
1.238482791E2,-9.087602234E-1,8.765771484E-1,8.421038361E0,8.515169975E0
1.240486381E2,-1.662293243E0,1.833537140E0,6.887776794E0,7.318917026E0
1.242489981E2,-3.972738647E-1,2.177671509E0,1.436158493E1,1.453118032E1
1.244493581E2,-1.232686615E0,2.387834473E0,7.033573608E0,7.529437394E0
1.246497181E2,1.018182678E0,3.194207611E0,5.319637756E0,6.287941164E0
1.248500770E2,1.296154633E0,3.730841675E0,1.361748230E1,1.417868191E1
1.250504370E2,-4.035607910E-1,9.740245056E-1,6.084996185E0,6.175658963E0
1.252507960E2,-5.047503662E-1,3.983516235E0,1.051593201E1,1.125646483E1
1.254511560E2,-2.255958710E0,-1.738185425E0,1.430320633E1,1.458397578E1
1.256515150E2,-1.468296661E0,7.015910339E-1,6.114484863E0,6.327325676E0
1.258518750E2,1.074765015E0,2.836601257E0,1.503653137E1,1.533944922E1
1.260522340E2,3.006797333E0,2.173180847E0,4.296814728E0,5.676809139E0
1.262525930E2,-1.414558411E-1,2.721490631E0,5.834417267E0,6.439483353E0
1.264529530E2,1.321002960E0,3.582799530E0,1.367945343E1,1.420242752E1
1.266533120E2,-1.558708649E0,3.360511780E-1,9.452243958E0,9.585792553E0
1.268536711E2,1.175056458E-1,2.791694641E0,8.992998962E0,9.417080061E0
1.270540301E2,-1.853745117E0,-8.083190918E-1,1.247341141E1,1.263628675E1
1.272543901E2,-1.375639343E-1,2.768193512E0,6.320606232E0,6.901585491E0
1.274547491E2,-1.132844238E0,2.022144928E0,1.162422729E1,1.185306148E1
1.276551081E2,-8.592132568E-1,4.456233215E-1,7.044650574E0,7.110831827E0
1.278554675E2,-1.068627777E0,1.998494110E0,5.977968750E0,6.393125559E0
1.280558265E2,-1.522483978E0,2.333347778E0,1.501347931E1,1.526980780E1
1.282561855E2,2.990780640E-1,9.434880066E-1,4.488416290E0,4.596248264E0
1.284565445E2,-8.446934509E-1,2.741698608E0,8.169860687E0,8.658928452E0
1.286569035E2,1.211879883E0,3.983216858E0,1.291080185E1,1.356552519E1
1.288572623E2,-5.137316895E-1,7.080276489E-2,8.951385498E0,8.966394795E0
1.290576203E2,-2.497556305E0,1.369352417E0,1.239467514E1,1.271773900E1
1.292579793E2,-2.841540985E0,-2.259700928E0,1.818478455E1,1.854365100E1
1.294583383E2,-1.046922913E0,2.779120789E0,6.748865662E0,7.373381020E0
1.296586973E2,-1.424138489E0,1.721869354E0,1.219573883E1,1.239875196E1
1.298590552E2,-3.222798157E0,-2.233206024E0,7.619305573E0,8.568982116E0
1.300594142E2,-1.049617310E0,1.564696198E0,6.066135406E0,6.352005152E0
1.302597732E2,-2.125729523E0,1.450483704E0,1.317679871E1,1.342574591E1
1.304601312E2,8.391549683E-1,2.160008240E-1,3.822900238E0,3.919872912E0
1.306604902E2,-5.104385376E-1,2.222578125E0,6.479575653E0,6.869155819E0
1.308608481E2,4.285588074E-1,2.902164917E0,1.336121521E1,1.367948448E1
1.310612071E2,-1.459315338E0,5.560935974E-1,9.051676941E0,9.185406730E0
1.312615651E2,2.604583740E-1,3.201392670E0,8.491841125E0,9.078993297E0
1.314619231E2,1.234183502E0,2.975362701E0,1.384860168E1,1.421828966E1
1.316622821E2,1.164428558E0,1.775757294E0,6.574627991E0,6.909047767E0
1.318626403E2,7.080276489E-1,2.806962891E0,9.381441193E0,9.817931690E0
1.320629983E2,3.757186890E-1,2.201172638E0,1.522049881E1,1.538342971E1
1.322633573E2,5.179229736E-2,1.539548492E0,7.662415924E0,7.815721963E0
1.324637153E2,-1.479972382E0,1.591490479E0,1.047731232E1,1.070033801E1
1.326640733E2,1.144370270E0,-1.597178650E-1,6.884932709E0,6.981217051E0
1.328644311E2,-4.052073669E-1,2.138003998E0,6.176306305E0,6.548435972E0
1.330647891E2,-4.655319214E-1,1.529818726E0,1.338471634E1,1.347989973E1
1.332651471E2,-9.651928711E-1,5.111869812E-1,8.828041992E0,8.895349056E0
1.334655051E2,2.875520325E-1,2.665207672E0,6.393804016E0,6.933018672E0
1.336658631E2,2.125430145E0,2.381697235E0,1.521630753E1,1.554753838E1
1.338662212E2,6.602769470E-1,6.679110718E-1,6.738387451E0,6.803523814E0
1.340665792E2,8.232879639E-2,2.772684174E0,9.222022705E0,9.630174367E0
1.342669372E2,1.178499298E0,2.533930664E0,1.513008682E1,1.538600638E1
1.344672952E2,-1.003363495E0,2.975811768E-1,9.546697540E0,9.603891231E0
1.346676532E2,-1.230441284E-1,3.046913910E0,9.041797485E0,9.542165687E0
1.348680105E2,-9.906399536E-1,-1.442550201E0,1.596475113E1,1.606037351E1
1.350683685E2,-9.285191345E-1,2.235900421E0,4.932243347E0,5.494399231E0
1.352687265E2,-1.201102295E0,3.020119629E0,1.210742249E1,1.253608585E1
1.354690845E2,-2.019151154E0,1.710942078E-1,5.848338318E0,6.189451162E0
1.356694415E2,4.772076416E-1,2.713257751E0,4.427942047E0,5.214994298E0
1.358697989E2,2.122586060E-1,3.105741577E0,1.493998215E1,1.526085682E1
1.360701559E2,-5.764512634E-1,3.257226562E-1,9.194779358E0,9.218587676E0
1.362705139E2,-5.297483826E-1,2.525398407E0,5.940696259E0,6.476892966E0
1.364708709E2,9.375004578E-1,4.790787506E0,1.382001114E1,1.465685027E1
1.366712289E2,-5.852828979E-1,1.076561279E0,1.008572662E1,1.015989280E1
1.368715865E2,1.160536652E0,3.223396912E0,8.731792145E0,9.379836194E0
1.370719445E2,4.159849548E-1,4.730163574E-2,1.902708298E1,1.903168851E1
1.372723015E2,-4.287084961E-1,1.885778503E0,5.568869476E0,5.895104646E0
1.374726585E2,5.123844910E-1,3.651356964E0,9.448950806E0,1.014286039E1
1.376730165E2,-2.366578674E0,-7.441026306E-1,1.129536118E1,1.156458246E1
1.378733733E2,3.390449524E-1,2.516566772E0,5.216053162E0,5.801316263E0
1.380737303E2,-9.608518982E-1,2.339335327E0,1.502799911E1,1.523930719E1
1.382740873E2,1.904938660E0,7.689509583E-1,8.052504730E0,8.310409695E0
1.384744453E2,-6.574328613E-1,2.529889069E0,6.895261230E0,7.374088696E0
1.386748023E2,8.819659424E-1,2.406695251E0,1.522618698E1,1.544042797E1
1.388751586E2,-1.781295776E-2,1.610800323E0,7.795339508E0,7.960044788E0
1.390755156E2,9.268725586E-1,2.702929230E0,8.555009766E0,9.019595958E0
1.392758726E2,6.259982300E-1,2.054178314E0,1.413555496E1,1.429774235E1
1.394762296E2,9.580078125E-3,2.677182770E0,5.463189240E0,6.083899738E0
1.396765866E2,-8.592132568E-1,2.618504791E0,1.364487534E1,1.392039646E1
1.398769443E2,-3.918251953E0,-1.620530090E0,1.140912460E1,1.217156277E1
1.400773003E2,1.565744019E-1,1.589843903E0,3.896996155E0,4.211733397E0
1.402776573E2,-1.800755310E-1,3.731889496E0,1.350686234E1,1.401409136E1
1.404780143E2,3.065625000E-1,1.135987701E0,4.744384003E0,4.888110902E0
1.406783713E2,1.552272034E-1,2.811453552E0,5.185217285E0,5.900410567E0
1.408787285E2,-2.260299683E-2,2.517913971E0,1.427446609E1,1.449485371E1
1.410790845E2,-1.267863464E0,2.676883392E0,7.366331635E0,7.939522921E0
1.412794415E2,5.776487732E-1,3.530408478E0,5.843099213E0,6.851224017E0
1.414797975E2,9.069639587E-1,3.981570282E0,1.274779083E1,1.338587527E1
1.416801545E2,-1.929487610E-1,2.161505127E0,6.189179535E0,6.558603278E0
1.418805112E2,-4.993615723E-1,2.883154449E0,9.153764648E0,9.610064974E0
1.420808672E2,-1.274749146E0,2.814297638E0,1.219873260E1,1.258389184E1
1.422812232E2,-2.243085480E0,1.777104492E0,6.177204437E0,6.807891561E0
1.424815802E2,1.177750854E0,4.305496674E0,7.749085693E0,8.942747216E0
1.426819362E2,-1.039288788E0,8.666976929E-2,1.002465363E1,1.007875554E1
1.428822931E2,-1.335822144E0,3.029550018E0,3.782933350E0,5.027243662E0
1.430826491E2,-1.720372467E0,3.026705933E0,1.568842575E1,1.607007569E1
1.432830051E2,-2.763702850E0,9.138496399E-1,6.900200958E0,7.489055206E0
1.434833611E2,9.642947388E-1,3.143313446E0,5.405110016E0,6.326570797E0
1.436837181E2,-1.022673340E0,5.503305817E0,1.386446869E1,1.495178008E1
1.438840743E2,-2.399510193E-1,1.275497589E0,5.713917847E0,5.859464801E0
1.440844303E2,-5.155279541E-1,3.728596344E0,8.699459381E0,9.478860337E0
1.442847863E2,2.971321106E-1,6.077511749E0,1.277069321E1,1.414620237E1
1.444851423E2,-1.684746552E0,2.689606934E0,1.011506561E1,1.060126920E1
1.446854983E2,9.292675781E-1,3.369942169E0,7.812703400E0,8.559111103E0
1.448858542E2,3.400927734E-1,1.803599396E0,1.297082703E1,1.310003770E1
1.450862102E2,-7.753875732E-2,2.803520050E0,5.246439972E0,5.949022551E0
1.452865662E2,-4.251159668E-2,3.509302368E0,1.138233032E1,1.191110633E1
1.454869213E2,-2.080224152E0,4.466711426E-1,7.885901184E0,8.167881311E0
1.456872772E2,-3.966751099E-2,2.175426178E0,5.171445923E0,5.610517400E0
1.458876332E2,1.048270111E0,3.468437347E0,1.711166611E1,1.749108472E1
1.460879892E2,2.037862244E0,2.824177094E0,5.895340576E0,6.847181850E0
1.462883442E2,-1.622625732E-1,3.047961731E0,9.582323456E0,1.005670536E1
1.464887002E2,8.601113892E-1,2.421664124E0,1.512080612E1,1.533763432E1
1.466890562E2,3.634442139E-1,1.628313904E0,7.946974182E0,8.120215300E0
1.468894115E2,-6.092330933E-1,1.700164490E0,1.110795090E1,1.125381257E1
1.470897675E2,1.192869415E0,1.248254242E0,7.473359070E0,7.670213288E0
1.472901225E2,8.322692871E-2,2.558030548E0,4.993915100E0,5.611562620E0
1.474904785E2,-3.890409851E-1,2.138003998E0,1.357018066E1,1.374307888E1
1.476908335E2,-1.013093262E0,1.161584473E0,5.631589050E0,5.838701198E0
1.478911892E2,1.110390930E0,2.865640869E0,7.684869232E0,8.276598379E0
1.480915442E2,1.505868530E0,2.225272522E0,1.301124298E1,1.328577893E1
1.482918992E2,5.703140259E-1,1.779948578E0,6.097420349E0,6.377461089E0
1.484922552E2,-1.489402771E-1,2.733465729E0,1.129610962E1,1.162308525E1
1.486926102E2,-2.402354279E0,3.041674805E-1,1.154234756E1,1.179362587E1
1.488929652E2,-5.595364380E-1,5.529501343E-1,6.171965332E0,6.221896089E0
1.490933202E2,8.726852417E-1,3.778143311E0,1.308683578E1,1.364922039E1
1.492936762E2,-6.252497864E-1,7.454498291E-1,8.404722290E0,8.460850401E0
1.494940312E2,-7.409591675E-2,3.124602356E0,4.163891144E0,5.206401785E0
1.496943862E2,2.582130432E-1,4.040996704E0,1.305405396E1,1.366764987E1
1.498947416E2,-1.601819000E0,1.341210938E0,7.747738495E0,8.024470243E0
1.500950966E2,1.314266968E-1,3.559448090E0,8.424032135E0,9.146106335E0
1.502954516E2,-2.522704010E0,-1.538800049E0,1.727752121E1,1.752839640E1
1.504958066E2,-6.459068298E-1,2.005978546E0,3.950435028E0,4.477396841E0
1.506961616E2,-7.005432129E-1,3.811074829E0,1.349713257E1,1.404235164E1
1.508965170E2,-2.557282104E0,3.989204407E-1,5.999673615E0,6.534134431E0
1.510968710E2,4.117936707E-1,1.919907532E0,6.544390869E0,6.832618152E0
1.512972260E2,5.763015747E-2,3.950884094E0,1.499192413E1,1.550388969E1
1.514975810E2,1.376687164E0,1.932331696E0,6.624773712E0,7.036817467E0
1.516979360E2,-1.174757080E0,2.884202271E0,6.687044220E0,7.376668444E0
1.518982897E2,2.809956665E0,5.342689819E0,1.397598679E1,1.522394159E1
1.520986447E2,-8.502319336E-1,1.314266968E-1,9.105864258E0,9.146416304E0
1.522989997E2,-8.756790161E-1,3.785927124E0,8.491691437E0,9.338569558E0
1.524993537E2,-1.076710968E0,-3.677851868E-1,1.337648346E1,1.342478611E1
1.526997088E2,-6.268963623E-1,2.364932098E0,4.733157349E0,5.328102980E0
1.529000635E2,-1.964065704E0,2.677332458E0,1.366508331E1,1.406272254E1
1.531004175E2,-1.491797791E0,1.675765228E0,5.652545471E0,6.081522840E0
1.533007725E2,8.099656677E-1,2.978655853E0,4.827910309E0,5.730371107E0
1.535011265E2,7.003935242E-1,4.592449951E0,1.452893692E1,1.525356207E1
1.537014805E2,1.774260406E0,2.079026642E0,5.593867493E0,6.225889920E0
1.539018356E2,-4.824467468E-1,3.099304962E0,8.723559265E0,9.270325365E0
1.541021896E2,1.655257874E0,5.974076843E0,1.215637070E1,1.364576203E1
1.543025436E2,-7.902067566E-1,9.470805359E-1,8.276139679E0,8.367548999E0
1.545028986E2,1.227447510E-1,4.100872192E0,9.668095093E0,1.050258453E1
1.547032526E2,7.702981567E-1,3.760030975E0,1.238344849E1,1.296460522E1
1.549036067E2,9.749226379E-1,2.318528595E0,6.278394012E0,6.763451809E0
1.551039607E2,-7.671546936E-1,3.533402252E0,1.014425491E1,1.076937164E1
1.553043157E2,-1.707050171E0,-1.026864624E-1,1.832354599E1,1.840317642E1
1.555046697E2,-4.119433594E-1,9.747729492E-1,6.110143890E0,6.201107804E0
1.557050237E2,-2.724334717E-1,2.774480438E0,1.369247635E1,1.397339867E1
1.559053770E2,-1.297352142E0,-1.503174133E0,1.062176193E1,1.080576150E1
1.561057310E2,-3.703298950E-1,1.766177216E0,8.339158630E0,8.532179842E0
1.563060850E2,-5.519023132E-1,2.534978485E0,1.207194626E1,1.234757460E1
1.565064390E2,-1.381626892E0,1.926643524E0,6.127507782E0,6.570175017E0
1.567067930E2,1.124162292E0,2.388732605E0,6.811585236E0,7.305304767E0
1.569071474E2,2.263293457E0,2.821482697E0,1.230246689E1,1.282318032E1
1.571075014E2,2.092348938E0,1.874102783E0,6.383774872E0,6.974436675E0
1.573078554E2,-1.712438965E-1,2.982248383E0,9.662406921E0,1.011361644E1
1.575082094E2,-2.471959534E0,-7.761360168E-1,1.149953659E1,1.178780356E1
1.577085624E2,-4.972659302E-1,2.030377808E0,4.747826843E0,5.187635992E0
1.579089164E2,5.890251160E-1,2.792892151E0,1.648536850E1,1.673064768E1
1.581092704E2,9.874964905E-1,7.423063660E-1,7.127278748E0,7.233551714E0
1.583096244E2,2.559677124E-2,2.911595306E0,7.272776184E0,7.833984672E0
1.585099784E2,-1.155297546E0,2.428549805E0,1.368439316E1,1.394615297E1
1.587103317E2,-2.386038208E-1,2.567610626E0,3.916904755E0,4.689530783E0
1.589106857E2,3.966751099E-1,3.671714630E0,5.762716370E0,6.844540848E0
1.591110397E2,2.155517578E0,3.170407104E0,1.547751434E1,1.594525596E1
1.593113927E2,1.099313965E0,2.135608978E0,6.014941864E0,6.476792611E0
1.595117467E2,4.885839844E-1,3.486699371E0,1.109073669E1,1.163616033E1
1.597121006E2,-1.442101135E0,3.025209045E-1,1.228585144E1,1.237389673E1
1.599124536E2,-9.943821716E-1,1.077309723E0,7.407196655E0,7.550890969E0
1.601128076E2,-3.097658386E0,2.816393280E0,1.310614563E1,1.375858321E1
1.603131606E2,6.908134460E-1,-2.014810181E-1,9.075477448E0,9.103961155E0
1.605135146E2,-3.318598938E-1,2.286944275E0,5.958808594E0,6.391216235E0
1.607138676E2,-1.586401062E0,2.011067963E0,1.346150665E1,1.370303704E1
1.609142216E2,-3.068618774E0,-1.731898499E-1,8.854686584E0,9.372933928E0
1.611145746E2,-6.023474121E-1,2.074386292E0,4.275708618E0,4.790363773E0
1.613149286E2,1.673220520E0,3.492686920E0,1.635678589E1,1.680901465E1
1.615152816E2,1.539847870E0,1.675465851E0,5.400619354E0,5.860461303E0
1.617156345E2,-1.514849854E-1,2.289189606E0,8.899293823E0,9.190253930E0
1.619159885E2,1.255888367E-1,6.472540283E-1,1.475466751E1,1.476939145E1
1.621163415E2,-2.933898926E-1,1.246757355E0,7.626790009E0,7.733589552E0
1.623166945E2,-9.009764099E-1,2.092348938E0,1.198168396E1,1.219632867E1
1.625170485E2,9.828561401E-1,-8.187973022E-2,7.994724884E0,8.055329692E0
1.627174009E2,-5.748046875E-2,1.972897339E0,5.922583923E0,6.242806119E0
1.629177539E2,-2.767744446E-1,7.881111145E-1,1.602417755E1,1.604593373E1
1.631181069E2,-1.395547943E0,6.032455444E-1,7.415878601E0,7.570119859E0
1.633184599E2,1.336720276E-1,2.947520599E0,6.431824951E0,7.076306812E0
1.635188129E2,2.877466278E0,5.011578369E0,1.374471771E1,1.491016415E1
1.637191660E2,1.259630585E0,1.696871338E0,5.689219208E0,6.069040842E0
1.639195190E2,-1.378333740E0,3.008593597E0,1.148067581E1,1.194811100E1
1.641198720E2,-3.848497009E-1,1.212328949E0,1.470317459E1,1.475808910E1
1.643202250E2,-6.917115784E-1,8.554710388E-1,8.268505554E0,8.341371572E0
1.645205780E2,-1.796414337E0,1.643881531E0,1.397898056E1,1.418948020E1
1.647209307E2,1.259031830E0,1.250649261E0,4.512216797E0,4.848647765E0
1.649212837E2,-1.158590698E-1,1.876348114E0,5.752687225E0,6.052067075E0
1.651216367E2,-4.110452271E0,3.526815948E0,1.312919769E1,1.420246741E1
1.653219897E2,-1.046324158E-1,1.740580444E0,4.581672363E0,4.902273949E0
1.655223427E2,3.604504395E-1,2.667003937E0,8.656648407E0,9.065340378E0
1.657226967E2,-3.516188049E-1,3.058290253E0,1.446217575E1,1.478618621E1
1.659230487E2,3.083587646E-2,2.006128235E0,4.921316071E0,5.314588715E0
1.661234017E2,-6.447093201E-1,3.008294220E0,8.409362640E0,8.954488497E0
1.663237547E2,1.047821045E-1,3.407214661E0,1.377001511E1,1.418567612E1
1.665241077E2,5.029541016E-1,9.855505371E-1,1.426039536E1,1.430325657E1
1.667244589E2,4.376898193E-1,1.034049683E0,9.838141479E0,9.902012871E0
1.669248119E2,-8.640032959E-1,-9.804611206E-2,9.767638092E0,9.806266804E0
1.671251639E2,-1.345102844E0,1.819765778E0,9.110354919E0,9.387194251E0
1.673255169E2,-9.310638428E-1,3.360062714E0,1.028107040E1,1.085621066E1
1.675258699E2,-1.457219696E0,7.629634094E-1,1.223795105E1,1.234799774E1
1.677262225E2,-1.359772339E0,1.083147583E0,9.005273438E0,9.171539630E0
1.679265755E2,9.879455566E-2,2.053579559E0,1.237386841E1,1.254350704E1
1.681269275E2,2.401007080E0,7.764353943E-1,7.394922180E0,7.813613823E0
1.683272805E2,-4.805007935E-2,2.327060852E0,5.269492035E0,5.760648169E0
1.685276325E2,-6.984475708E-1,3.192860413E-1,1.672621765E1,1.674383855E1
1.687279838E2,-2.672542419E0,1.597028961E0,7.816445618E0,8.413667843E0
1.689283368E2,1.488055573E0,2.919079742E0,5.385500793E0,6.303884098E0
1.691286888E2,1.553918610E0,5.354664917E0,1.330702789E1,1.442789280E1
1.693290418E2,-2.426454163E-1,1.544039154E0,4.151916046E0,4.436365693E0
1.695293938E2,-2.770588531E0,3.023861847E0,1.512649429E1,1.567261085E1
1.697297463E2,-3.063978424E0,4.718188477E-1,1.127350662E1,1.169198565E1
1.699300983E2,-1.164727936E0,1.212029572E0,6.247408447E0,6.469599613E0
1.701304513E2,-1.144669647E0,4.883295135E0,1.570563995E1,1.648708483E1
1.703308033E2,-8.699908447E-1,5.581892395E-1,7.544311523E0,7.614794525E0
1.705311553E2,-2.543810120E0,3.305576019E0,4.501439209E0,6.136836131E0
1.707315071E2,7.210505676E-1,5.841452637E0,1.153875504E1,1.295319847E1
1.709318591E2,-1.775308228E0,2.223775635E0,8.400980072E0,8.869800649E0
1.711322111E2,-3.849993896E-1,4.276906128E0,7.116052094E0,8.311338518E0
1.713325641E2,-2.965333557E-1,3.043620758E0,1.430170944E1,1.462499410E1
1.715329161E2,-2.161505127E-1,2.456990662E0,4.126319275E0,4.807289768E0
1.717332680E2,2.137554932E-1,4.498445435E0,9.902657318E0,1.087861778E1
1.719336200E2,-3.064726868E0,-3.246748352E-1,1.447714462E1,1.480154319E1
1.721339720E2,-8.937913513E-1,8.297245789E-1,4.391567688E0,4.557759605E0
1.723343240E2,-2.117047577E0,3.323538666E0,1.671349411E1,1.717174089E1
1.725346750E2,-1.414408722E0,1.197060699E0,5.697452087E0,5.991199099E0
1.727350271E2,-9.505233765E-1,3.820056152E0,4.462819519E0,5.950889157E0
1.729353791E2,-1.920955353E0,3.437302094E0,1.123219254E1,1.190240582E1
1.731357311E2,-1.368304596E0,1.923200684E0,7.789651337E0,8.139387341E0
1.733360831E2,-4.400848389E-2,4.686005402E0,7.663613434E0,8.982847780E0
1.735364351E2,-2.547252960E0,-3.860472107E-1,1.494432312E1,1.516477245E1
1.737367860E2,-1.155297546E0,1.906585236E0,5.670208740E0,6.092704395E0
1.739371380E2,-1.715582428E0,3.011587372E0,1.083087708E1,1.137192947E1
1.741374900E2,-2.750679932E0,-3.378474426E-1,6.707551575E0,7.257522243E0
1.743378420E2,-1.290765839E0,8.158035278E-1,6.395600281E0,6.575356629E0
1.745381930E2,-1.511856079E0,2.600841522E0,1.575503723E1,1.603967841E1
1.747385448E2,1.587448883E0,1.998494110E0,5.802383881E0,6.338898277E0
1.749388958E2,-1.710043945E0,2.195634155E0,9.051676941E0,9.469842400E0
1.751392478E2,8.415499878E-1,4.410578156E0,1.193722641E1,1.275377514E1
1.753395998E2,-5.797444153E-1,7.310797119E-1,8.787176971E0,8.836575143E0
1.755399508E2,6.227050781E-1,3.518732758E0,8.620423737E0,9.331717271E0
1.757403027E2,-4.008514252E0,-2.067051544E0,1.415067352E1,1.485201837E1
1.759406537E2,-1.029409332E0,2.354453888E0,5.011278992E0,5.631700793E0
1.761410057E2,-1.614542542E0,3.955674133E0,1.221235428E1,1.293814911E1
1.763413567E2,-2.575693817E0,4.522096252E-1,9.147627411E0,9.514083216E0
1.765417087E2,-5.164260864E-1,2.036365356E0,5.080285492E0,5.497524938E0
1.767420604E2,1.499132538E0,5.832471313E0,1.194590836E1,1.337796122E1
1.769424114E2,-1.981878662E-1,1.762734375E0,8.574020233E0,8.755588722E0
1.771427634E2,1.381926270E0,3.128943329E0,6.426436157E0,7.280047270E0
1.773431144E2,8.443940735E-1,4.239933014E0,1.566028427E1,1.624606219E1
1.775434654E2,-1.449884949E0,2.107617188E0,5.360203400E0,5.939359987E0
1.777438164E2,-8.879534912E-1,3.158432007E0,1.152513336E1,1.198302354E1
1.779441684E2,-5.042114868E0,-2.039209442E0,1.477861771E1,1.574766138E1
1.781445194E2,-2.960842896E-1,2.616858215E0,5.821094971E0,6.389112574E0
1.783448704E2,-1.030756531E0,2.623594208E0,1.306183777E1,1.336253387E1
1.785452214E2,-1.640738068E0,3.068618774E-1,9.190887451E0,9.341231062E0
1.787455717E2,-9.428892517E-1,2.027982788E0,5.555397491E0,5.988672275E0
1.789459227E2,-2.664608917E0,3.080294495E0,1.248329086E1,1.313091412E1
1.791462747E2,9.383985901E-1,2.037113800E0,4.790338440E0,5.289401376E0
1.793466257E2,9.595046997E-2,2.874771881E0,6.887327728E0,7.463833003E0
1.795469767E2,1.078507233E0,5.311404877E0,1.221879089E1,1.336686390E1
1.797473285E2,-1.010698242E0,6.855743408E-2,1.001582199E1,1.006692114E1
1.799476795E2,-2.264940033E0,2.547402649E0,1.191462341E1,1.239263752E1
1.801480305E2,-1.609153748E0,-1.122066650E0,1.442879517E1,1.456154316E1
1.803483805E2,-1.689237213E0,2.111958160E0,5.876030731E0,6.468510399E0
1.805487315E2,-1.175804901E0,3.633843384E0,1.410920975E1,1.461701524E1
1.807490826E2,-1.532064056E0,1.403182068E0,7.634424133E0,7.912052328E0
1.809494336E2,4.911286926E-1,2.963537292E0,6.102809143E0,6.802061461E0
1.811497846E2,-3.772155762E-2,4.705764313E0,1.440065369E1,1.515006493E1
1.813501356E2,1.239422607E-1,1.590891724E0,8.077053680E0,8.233170368E0
1.815504866E2,-3.751199341E-1,3.500470734E0,8.583600311E0,9.277510691E0
1.817508367E2,-3.146456909E-1,3.492686920E0,1.454794739E1,1.496464624E1
1.819511877E2,-4.358935547E-1,1.709445190E0,7.010371857E0,7.228936272E0
1.821515387E2,5.641767883E-1,3.933520203E0,8.577313385E0,9.453104333E0
1.823518887E2,-1.615141296E0,9.425898743E-1,1.285556671E1,1.299087189E1
1.825522397E2,-7.237449646E-1,2.772684174E0,3.459905090E0,4.492496804E0
1.827525907E2,-5.376818848E-1,3.142115936E0,1.381417328E1,1.417721333E1
1.829529407E2,-2.454895020E-2,2.957250366E0,5.959706726E0,6.653122323E0
1.831532918E2,8.882528687E-1,3.459006958E0,4.726870422E0,5.924274326E0
1.833536427E2,6.671626282E-1,5.195096741E0,1.282757492E1,1.385571414E1
1.835539928E2,1.286574554E0,2.081271973E0,4.961282959E0,5.531843789E0
1.837543435E2,-1.175804901E0,3.390150146E0,1.060544586E1,1.119603131E1
1.839546935E2,-4.460723877E-2,2.847079468E0,1.416040329E1,1.444385242E1
1.841550445E2,-2.776725769E-1,1.196312256E0,8.311615906E0,8.401858368E0
1.843553945E2,2.559677124E-2,3.565435638E0,1.007479935E1,1.068712161E1
1.845557445E2,1.966909790E-1,-1.193019104E-1,1.468566101E1,1.468746267E1
1.847560956E2,-3.851490784E-1,2.141297150E0,5.973478088E0,6.357352733E0
1.849564456E2,-1.442400513E0,2.537822571E0,1.323323135E1,1.355136431E1
1.851567956E2,-1.340312805E0,8.521778870E-1,5.191504211E0,5.429029521E0
1.853571466E2,8.463400269E-1,3.124003601E0,5.569318542E0,6.441505955E0
1.855574966E2,4.876858521E-1,3.217259674E0,1.253613098E1,1.295157046E1
1.857578462E2,9.355545044E-1,1.663490753E0,6.796017609E0,7.058917697E0
1.859581962E2,1.065783691E-1,3.315156097E0,8.635392609E0,9.250493198E0
1.861585472E2,-2.539618835E0,-7.382647705E-1,1.476798981E1,1.500294043E1
1.863588972E2,-4.201762390E-1,1.334924011E0,4.844076691E0,5.042186943E0
1.865592472E2,-6.364764404E-1,3.183729401E0,1.353395599E1,1.391794525E1
1.867595968E2,-8.078700256E-1,-1.141975250E0,7.764952698E0,7.889946251E0
1.869599468E2,-4.864883423E-1,2.876717834E0,5.693859558E0,6.397828778E0
1.871602968E2,5.798941040E-1,2.804268494E0,1.446187637E1,1.474266147E1
1.873606468E2,-7.723937988E-2,1.748214569E0,8.909023590E0,9.079257758E0
1.875609968E2,1.263821869E0,3.259022827E0,7.603139191E0,8.368165931E0
1.877613467E2,1.113833771E0,1.746268616E0,1.454540268E1,1.469213459E1
1.879616967E2,4.343966675E-1,2.417023773E0,5.063071289E0,5.627201370E0
1.881620467E2,4.466711426E-1,2.479893036E0,1.544173874E1,1.564597967E1
1.883623967E2,-2.180216217E0,-1.430425415E0,8.538693695E0,8.927975674E0
1.885627467E2,1.407073975E-1,2.024539948E0,5.663772125E0,6.016383902E0
1.887630976E2,1.036444702E0,2.227218475E0,1.310300217E1,1.333129347E1
1.889634476E2,3.206931152E0,2.284848633E0,5.332211609E0,6.628530858E0
1.891637976E2,-8.566685486E-1,2.406246185E0,6.714886322E0,7.184260576E0
1.893641476E2,1.306932220E0,2.486179962E0,1.396131729E1,1.424105134E1
1.895644976E2,-6.698570251E-1,6.786886597E-1,9.308842163E0,9.357556794E0
1.897648460E2,4.225712585E-1,2.994522858E0,9.677525482E0,1.013904498E1
1.899651960E2,1.222956848E-1,7.921527100E-1,1.623314301E1,1.625291955E1
1.901655460E2,-7.726931763E-1,2.143841858E0,6.047723694E0,6.462822490E0
1.903658960E2,-7.322772217E-1,3.959566040E0,1.234333191E1,1.298353711E1
1.905662450E2,-1.758842468E0,4.126918030E-1,7.862699432E0,8.067582272E0
1.907665953E2,5.956114197E-1,2.899620209E0,5.338648224E0,6.104401295E0
1.909669453E2,1.179547119E-1,3.489842834E0,1.486438934E1,1.526902049E1
1.911672943E2,6.659651184E-1,1.046324158E0,9.056766357E0,9.141297536E0
1.913676443E2,-2.140548706E-1,2.813998260E0,8.018226013E0,8.500373762E0
1.915679943E2,-1.815275116E0,9.830058289E-1,1.600022736E1,1.613284847E1
1.917683432E2,-1.070723419E0,7.086264038E-1,7.331005096E0,7.442596035E0
1.919686932E2,-7.496411133E-1,3.102298737E0,1.457863358E1,1.492389950E1
1.921690422E2,8.363108826E-1,5.358856201E-1,8.049211578E0,8.110264874E0
1.923693922E2,-1.756148071E0,2.477048950E0,6.083199921E0,6.798907914E0
1.925697412E2,-8.030799866E-1,4.917274475E0,1.530222885E1,1.609294049E1
1.927700911E2,-1.347348175E0,1.783391418E0,3.535497894E0,4.182771499E0
1.929704401E2,1.536405029E0,4.484524384E0,5.363346863E0,7.158001741E0
1.931707901E2,2.625540161E-1,4.878954163E0,1.141780655E1,1.241931700E1
1.933711391E2,2.204914856E-1,1.743274841E0,6.439309387E0,6.674753108E0
1.935714881E2,-2.486629028E0,2.307751007E0,1.361269226E1,1.402905660E1
1.937718386E2,-3.378773804E0,4.441264343E-1,1.411624512E1,1.452176769E1
1.939721876E2,-1.158590698E0,1.211281128E0,6.719376984E0,6.925284213E0
1.941725366E2,-3.177891541E0,2.687810669E0,1.335432953E1,1.398790327E1
1.943728866E2,-3.634442139E-1,-7.207511902E-1,6.921756134E0,6.968664288E0
1.945732356E2,-3.008743286E-1,2.547252960E0,5.426814880E0,6.002444731E0
1.947735841E2,-9.918374634E-1,3.610941010E0,1.458806396E1,1.506101745E1
1.949739331E2,-1.846110992E0,1.611997833E0,6.187532959E0,6.655240561E0
1.951742831E2,8.747808838E-1,3.489393768E0,8.493787079E0,9.224181774E0
1.953746321E2,8.214916992E-1,3.581901398E0,1.420081924E1,1.466861048E1
1.955749811E2,4.050576782E-1,1.536704407E0,4.810845795E0,5.066534261E0
1.957753303E2,-6.818321228E-1,3.225043488E0,1.213810867E1,1.257773758E1
1.959756793E2,-2.899769897E0,1.730401611E-1,1.507754608E1,1.535483651E1
1.961760283E2,-4.321513367E-1,9.532177734E-1,5.717959442E0,5.812954420E0
1.963763773E2,1.139280853E0,3.470832367E0,1.311527664E1,1.361451871E1
1.965767263E2,1.587448883E0,3.164419556E0,8.589587860E0,9.290563206E0
1.967770755E2,-1.237925720E-1,3.094963989E0,3.655548248E0,4.791363031E0
1.969774245E2,5.215155029E-1,4.747377777E0,1.308189606E1,1.392643453E1
1.971777735E2,1.217568054E0,1.897603912E0,9.492809601E0,9.756885092E0
1.973781225E2,9.825567627E-1,3.172652435E0,8.654103699E0,9.269555119E0
1.975784715E2,1.976489868E0,5.777984619E-1,1.743813721E1,1.755929932E1
1.977788204E2,-2.511776733E-1,1.690734100E0,4.652774506E0,4.956811740E0
1.979791694E2,-6.164181519E-1,2.772983551E0,1.590846817E1,1.616009804E1
1.981795184E2,-1.448687439E0,1.377136230E-1,5.922883301E0,6.099033279E0
1.983798664E2,5.637277222E-1,2.846181335E0,7.053631897E0,7.627074149E0
1.985802154E2,8.637039185E-2,4.472249908E0,1.335148544E1,1.408086086E1
1.987805646E2,-4.535568237E-1,5.932164001E-1,5.871989136E0,5.919280015E0
1.989809136E2,-1.302142181E0,2.305056610E0,9.562714233E0,9.922417233E0
1.991812616E2,-3.077001343E0,-2.130220184E0,1.555475372E1,1.599862928E1
1.993816106E2,-1.306333466E0,8.207432556E-1,6.749464417E0,6.923539306E0
1.995819596E2,-7.978408813E-2,3.066523132E0,1.037208115E1,1.081619142E1
1.997823072E2,6.471043396E-1,1.313069458E0,7.779322815E0,7.915854906E0
1.999826563E2,-1.110690308E-1,3.190166016E0,5.417384491E0,6.287889174E0
2.001830042E2,-2.003134460E0,2.943628693E0,1.326496536E1,1.373451141E1
2.003833532E2,-2.544708252E-3,2.599194946E0,5.759423218E0,6.318763854E0
2.005837012E2,9.277706909E-1,3.473227386E0,5.552852783E0,6.615001207E0
2.007840507E2,7.105723572E-1,4.270170135E0,1.193333450E1,1.269424036E1
2.009843987E2,1.188079376E0,1.855391693E0,4.584516449E0,5.086433132E0
2.011847477E2,-1.403631134E0,4.415368195E0,1.142379410E1,1.232755970E1
2.013850957E2,3.942800903E-1,2.884202271E0,1.334474945E1,1.365856572E1
2.015854447E2,-4.472698975E-1,1.603016510E0,7.998467102E0,8.169772841E0
2.017857921E2,2.347119141E-1,2.846480713E0,1.209769272E1,1.243027398E1
2.019861401E2,4.459226990E-1,8.562194824E-1,7.504644012E0,7.566481389E0
2.021864891E2,-2.772235107E-1,3.079246674E0,3.595523071E0,4.741982614E0
2.023868371E2,-1.653760986E0,3.536096649E0,1.464659225E1,1.515788803E1
2.025871851E2,-1.013392639E0,1.709145813E0,6.271807709E0,6.579036099E0
2.027875338E2,1.496737518E0,3.767066345E0,5.914650421E0,7.170362728E0
2.029878818E2,-5.360353088E-1,8.099656677E-1,1.544847473E1,1.547897767E1
2.031882298E2,-6.062393188E-2,1.149010620E0,5.713468781E0,5.828175201E0
2.033885778E2,-4.415817261E-1,2.849175110E0,1.290646088E1,1.322458036E1
2.035889268E2,-3.015179901E0,-3.920347595E-1,8.044271851E0,8.599727362E0
2.037892750E2,5.569917297E-1,1.041833496E0,5.246739349E0,5.378097305E0
2.039896230E2,8.000862122E-1,4.184847565E0,1.495914230E1,1.555406781E1
2.041899710E2,2.859054565E-2,1.964814148E0,5.120701447E0,5.484787631E0
2.043903190E2,6.345304871E-1,3.708538055E0,5.379513245E0,6.564681729E0
2.045906670E2,3.600013733E-1,3.729943542E0,1.486633530E1,1.533134061E1
2.047910150E2,-4.071533203E-2,1.320404205E0,8.657396851E0,8.757604994E0
2.049913630E2,1.478026428E0,4.117337952E0,6.052663422E0,7.468049841E0
2.051917110E2,5.733078003E-1,2.237397308E0,1.509640686E1,1.527207021E1
2.053920590E2,1.234931946E-1,1.985171814E0,3.410807190E0,3.948387441E0
2.055924070E2,-1.517993317E0,4.206552429E0,1.088641159E1,1.176916923E1
2.057927548E2,-3.083737335E0,2.454895020E-2,9.324709167E0,9.821417396E0
2.059931028E2,-1.893562317E-1,1.600471802E0,6.141279144E0,6.349226354E0
2.061934508E2,1.121318207E0,5.417534180E0,1.449121536E1,1.551136209E1
2.063937988E2,2.648592224E0,1.814676361E0,3.606600037E0,4.828628676E0
2.065941468E2,-1.454375610E0,3.745511169E0,6.107748871E0,7.310858951E0
2.067944952E2,2.664309540E0,5.108876038E0,1.205772583E1,1.336367883E1
2.069948422E2,-5.786965942E-1,1.119971008E0,7.845036163E0,7.945679154E0
2.071951902E2,-1.860032043E0,2.403701477E0,8.680598602E0,9.197298086E0
2.073955382E2,-2.691403198E0,-1.226250000E0,1.466470459E1,1.495997664E1
2.075958862E2,-5.912704468E-1,1.706900482E0,6.192622375E0,6.450711735E0
2.077962331E2,-3.322341156E0,2.728376312E0,1.481738708E1,1.542844607E1
2.079965811E2,-2.296524353E0,-9.470805359E-1,7.617958374E0,8.012757043E0
2.081969291E2,-8.496331787E-1,2.025438080E0,6.732848969E0,7.082056988E0
2.083972761E2,-1.681004333E-1,2.982697449E0,1.579724945E1,1.607724579E1
2.085976241E2,8.246351624E-1,9.952803040E-1,6.811734924E0,6.933277631E0
2.087979720E2,-5.493576050E-1,3.110082550E0,5.821693726E0,6.623180888E0
2.089983190E2,-1.387614441E0,6.426885223E0,1.500374954E1,1.638117297E1
2.091986670E2,-5.460644531E-1,2.260599060E0,6.687343597E0,7.080187772E0
2.093990140E2,1.285826111E0,3.461551666E0,7.737709351E0,8.573671018E0
2.095993620E2,-4.519551544E0,-6.201603699E-1,1.742271927E1,1.801005530E1
2.097997087E2,-7.286846924E-1,2.234253845E0,2.680176544E0,3.564578227E0
2.100000567E2,-2.141596527E0,4.275259552E0,1.378318771E1,1.458905561E1
2.102004037E2,-3.146606598E0,-9.535171509E-1,8.324489136E0,8.950276387E0
2.104007517E2,2.745291138E-1,2.328108673E0,5.498815155E0,5.977660440E0
2.106010987E2,2.676434326E-1,5.203030243E0,1.441876602E1,1.533114380E1
2.108014462E2,-3.200344849E-1,1.714085541E0,6.965465240E0,7.180405095E0
2.110017942E2,-3.068618774E-1,3.577410736E0,7.986941071E0,8.756897821E0
2.112021412E2,-1.301992493E0,4.463717651E0,1.547062866E1,1.615426603E1
2.114024882E2,-8.812174988E-1,1.588496704E0,8.540340271E0,8.731396108E0
2.116028362E2,1.866468658E0,4.718338165E0,7.071145477E0,8.703305042E0
2.118031837E2,1.420545959E-1,2.944526825E0,1.386521713E1,1.417514246E1
2.120035307E2,-4.076023865E-1,1.891167297E0,3.159629517E0,3.704849813E0
2.122038777E2,-2.033072205E0,3.666924591E0,1.352841751E1,1.416325524E1
2.124042247E2,-3.509302368E0,-8.143066406E-2,1.075483521E1,1.131319205E1
2.126045727E2,4.715194702E-1,2.799927521E0,6.089786224E0,6.719183060E0
2.128049195E2,7.671546936E-1,3.183430023E0,1.205862396E1,1.249532572E1
2.130052665E2,1.163829803E0,1.559157715E0,9.646390228E0,9.840646169E0
2.132056135E2,-1.559756470E-1,3.848796387E0,6.024821320E0,7.150946368E0
2.134059605E2,-1.640588379E-1,6.560706940E0,1.437071594E1,1.579833116E1
2.136063075E2,-6.556365967E-1,2.178270264E0,8.624315643E0,8.919279175E0
2.138066538E2,2.020049286E0,5.587281189E0,5.539231110E0,8.122893049E0
2.140070008E2,-4.490661621E-3,1.592089233E0,1.585443054E1,1.593416882E1
2.142073478E2,-7.146139526E-1,2.007026367E0,4.214635620E0,4.722497364E0
2.144076948E2,-2.129471741E0,3.509002991E0,1.467877533E1,1.524185675E1
2.146080418E2,-3.910617828E0,-1.092428284E0,1.105990082E1,1.178166955E1
2.148083889E2,6.628216553E-1,2.111060028E0,4.770878906E0,5.259010603E0
2.150087349E2,-1.334624634E0,3.438798981E0,1.449989731E1,1.496173731E1
2.152090819E2,2.140399017E0,1.086440735E0,8.045469360E0,8.395906065E0
2.154094289E2,-5.888754272E-1,3.890709229E0,4.968168640E0,6.337751353E0
2.156097759E2,-1.294358368E0,4.489164734E0,1.421084839E1,1.495915023E1
2.158101230E2,-4.604425049E-1,3.114273834E0,7.259304199E0,7.912534756E0
2.160104690E2,2.101030884E0,4.499792633E0,5.320535889E0,7.278088118E0
2.162108160E2,3.638932800E-1,2.862198029E0,1.520298523E1,1.547434508E1
2.164111630E2,2.724334717E-1,1.767674103E0,4.779710541E0,5.103383641E0
2.166115090E2,-2.515968018E0,2.869981842E0,1.352317841E1,1.405144993E1
2.168118563E2,-4.609664154E0,-3.258723450E-1,1.103295685E1,1.196166097E1
2.170122033E2,-6.087840271E-1,9.846524048E-1,5.240602112E0,5.366942225E0
2.172125493E2,3.012784882E0,4.940925293E0,8.185278625E0,1.002439034E1
2.174128963E2,-2.406994629E-1,7.610174561E-1,8.928034058E0,8.963641890E0
2.176132433E2,-5.451663208E-1,2.617307281E0,3.691174164E0,4.557660631E0
2.178135886E2,-2.404300232E0,3.402723999E0,1.514775009E1,1.571029990E1
2.180139356E2,-1.278790741E0,2.253563690E0,6.236331482E0,6.753198162E0
2.182142816E2,-2.499801636E-2,2.995121613E0,6.008355560E0,6.713547119E0
2.184146286E2,2.306703186E-1,5.126389618E0,1.421728500E1,1.511503464E1
2.186149746E2,2.857557678E-1,1.443897400E0,7.890691223E0,8.026799115E0
2.188153212E2,-7.704478455E-1,3.708388367E0,1.095886093E1,1.159492851E1
2.190156682E2,-4.811145172E0,-2.083517303E0,1.502799911E1,1.591630986E1
2.192160142E2,-6.646179199E-1,1.392105103E0,5.997428284E0,6.192642377E0
2.194163612E2,-1.904489594E0,2.976560211E0,1.605606125E1,1.644031916E1
2.196167072E2,3.315455475E0,3.318898315E0,6.949298859E0,8.384514635E0
2.198170531E2,2.049238586E-1,3.298390961E0,5.443580017E0,6.368197557E0
2.200174001E2,1.995949402E0,4.624483337E0,1.429721878E1,1.515850009E1
2.202177461E2,2.791694641E-1,1.318757629E0,7.970774689E0,8.083953637E0
2.204180921E2,2.300715637E-1,3.196902008E0,1.084060684E1,1.130450672E1
2.206184381E2,-8.493338013E-1,-4.821473694E-1,7.924520874E0,7.984476506E0
2.208187847E2,-8.390052795E-1,2.280657349E0,6.817572784E0,7.237722464E0
2.210191307E2,-1.142274628E0,1.952389984E0,1.577060486E1,1.593199911E1
2.212194778E2,-2.008373566E0,1.338666229E0,6.804250488E0,7.219654864E0
2.214198237E2,1.105301514E0,3.262615356E0,6.844516754E0,7.662490457E0
2.216201697E2,2.196681976E0,2.304906921E0,1.467233871E1,1.501384464E1
2.218205155E2,6.027964783E-1,1.224154358E0,4.415966949E0,4.621978103E0
2.220208615E2,-1.323847046E0,2.530936890E0,1.379067215E1,1.408335368E1
2.222212075E2,-2.641706543E0,-1.029409332E0,1.385414017E1,1.414126928E1
2.224215535E2,-1.786834259E0,1.092727661E-2,8.305478668E0,8.495520701E0
2.226218995E2,5.809419250E-1,3.914958801E0,1.137260056E1,1.204161282E1
2.228222453E2,-4.267625427E-1,-1.514849854E-1,8.533155212E0,8.545163067E0
2.230225913E2,9.933343506E-1,3.576662292E0,4.577780457E0,5.893666108E0
2.232229373E2,-1.165027313E0,3.610791321E0,1.421623718E1,1.471382011E1
2.234232833E2,-7.978408813E-2,2.749931488E0,5.782774658E0,6.403824751E0
2.236236283E2,1.482966156E0,3.912414093E0,7.409891052E0,8.509562742E0
2.238239745E2,1.371148682E0,2.549498291E0,1.362930771E1,1.393334198E1
2.240243205E2,1.307081909E0,2.377655640E0,4.996609497E0,5.685755528E0
2.242246665E2,-7.336244202E-1,3.333418121E0,1.311782135E1,1.355459768E1
2.244250125E2,-2.040257263E0,-2.275268555E-1,1.200024536E1,1.217457625E1
2.246253575E2,-6.045927429E-1,1.421294403E0,7.454348602E0,7.612681738E0
2.248257032E2,-1.124761047E0,2.582429810E0,1.586431000E1,1.611242883E1
2.250260492E2,1.843715973E0,1.825004883E0,5.052593079E0,5.679667968E0
2.252263942E2,2.347119141E-1,2.867886200E0,6.252198486E0,6.882575597E0
2.254267402E2,1.173559570E0,3.472329254E0,1.342947327E1,1.392067041E1
2.256270862E2,8.220904541E-1,1.448986816E0,9.104517059E0,9.255680763E0
2.258274318E2,7.484436035E-1,3.413501587E0,8.562344513E0,9.248021652E0
2.260277778E2,1.172511749E0,1.649120636E0,1.425201279E1,1.439493839E1
2.262281228E2,-8.687933350E-1,2.299069061E0,8.195756836E0,8.556339785E0
2.264284688E2,-1.978884888E-1,3.629203033E0,9.429640961E0,1.010585984E1
2.266288138E2,-2.834505615E0,6.286926270E-3,1.244182709E1,1.276062392E1
2.268291591E2,8.105644226E-1,2.185006256E0,7.348668365E0,7.709357546E0
2.270295041E2,-4.340972900E-2,2.895578613E0,1.117665802E1,1.154573274E1
2.272298491E2,1.430126038E0,1.464404755E0,7.175478516E0,7.461717878E0
2.274301951E2,2.948867798E-2,3.034789124E0,5.735323334E0,6.488817176E0
2.276305401E2,-1.033151550E0,2.703677673E0,1.385922958E1,1.415823152E1
2.278308866E2,-1.299896851E0,1.947749634E0,1.059526703E1,1.085095129E1
2.280312316E2,1.493144989E0,3.999981995E0,7.182513885E0,8.355707249E0
2.282315766E2,7.559280396E-2,4.025129700E0,1.081890198E1,1.154365728E1
2.284319216E2,8.235873413E-1,6.265969849E-1,8.441845093E0,8.505037828E0
2.286322666E2,-3.827540588E-1,2.547552338E0,8.816515961E0,9.185177041E0
2.288326128E2,-2.869532776E-1,3.154839478E0,1.288640259E1,1.327006880E1
2.290329577E2,-5.203179932E-1,1.052311707E0,1.124461670E1,1.130572844E1
2.292333027E2,3.790118408E-1,2.112107849E0,9.541757812E0,9.780071150E0
2.294336477E2,8.656498718E-1,-6.631210327E-1,1.433748505E1,1.437889275E1
2.296339927E2,-4.343966675E-1,1.386267242E0,6.638694763E0,6.795785863E0
2.298343367E2,-1.162033539E0,3.592828674E0,1.136107452E1,1.197216581E1
2.300346817E2,-1.658700714E0,-1.923649750E0,1.540551407E1,1.561350634E1
2.302350267E2,-1.193917236E0,1.511856079E0,6.383475494E0,6.667826224E0
2.304353717E2,2.460882568E-1,3.170257416E0,1.029094986E1,1.077101390E1
2.306357167E2,-1.609153748E0,-1.831441498E0,1.354293732E1,1.376062153E1
2.308360624E2,2.088157654E-1,2.980452118E0,4.759652252E0,5.619696470E0
2.310364074E2,-7.875123596E-1,1.910926208E0,1.615410736E1,1.628579133E1
2.312367514E2,-3.429368591E-1,1.382375336E0,7.653584290E0,7.784980394E0
2.314370964E2,4.712200928E-1,2.602338409E0,5.649252319E0,6.237649024E0
2.316374414E2,2.005529480E0,4.233945465E0,1.278551239E1,1.361681937E1
2.318377867E2,8.283773804E-1,1.592538300E0,3.036735077E0,3.527626291E0
2.320381307E2,3.209326172E-1,3.263363800E0,9.933942261E0,1.046115433E1
2.322384757E2,3.903881836E-1,3.082539825E0,1.316961365E1,1.353119279E1
2.324388207E2,-2.427951050E-1,8.394543457E-1,7.908653870E0,7.956785726E0
2.326391647E2,9.150471497E-1,3.769760742E0,7.555538177E0,8.493206962E0
2.328395095E2,2.719844055E-1,2.707719269E0,1.518008286E1,1.542208269E1
2.330398535E2,-9.610015869E-2,2.252066803E0,5.222340088E0,5.688046775E0
2.332401985E2,5.530998230E-1,3.140169983E0,1.042716660E1,1.090377871E1
2.334405425E2,2.649490356E-2,-5.254074097E-2,1.226953537E1,1.226967647E1
2.336408875E2,-1.168021088E0,1.407523041E0,9.431137848E0,9.606859814E0
2.338412316E2,-1.653910675E0,3.365900574E0,1.156974060E1,1.216238483E1
2.340415766E2,7.551795959E-1,8.318202209E-1,7.759264526E0,7.840179022E0
2.342419206E2,3.903881836E-1,3.268153839E0,4.065246277E0,5.230627089E0
2.344422656E2,3.053649902E-2,3.049608307E0,1.368514160E1,1.402084676E1
2.346426096E2,2.000440063E0,3.293451233E0,4.545896759E0,5.959342146E0
2.348429532E2,1.019529877E0,3.115920410E0,8.293653259E0,8.918132403E0
2.350432972E2,-6.315367126E-1,2.089804230E0,1.546733551E1,1.562064621E1
2.352436422E2,1.154848480E0,2.024539948E0,7.738457794E0,8.081841748E0
2.354439862E2,-5.767506409E-1,3.546125793E0,1.069436096E1,1.128171112E1
2.356443302E2,3.978726196E-1,2.568808136E0,1.375280090E1,1.399630703E1
2.358446740E2,-1.988165588E0,1.099912720E0,8.018226013E0,8.333940172E0
2.360450180E2,-8.928932190E-1,4.715643768E0,8.691376190E0,9.928472920E0
2.362453620E2,-1.873803406E0,4.731660461E-1,1.213122299E1,1.228420110E1
2.364457060E2,-6.463558960E-1,2.767295380E0,4.522545319E0,5.341265376E0
2.366460500E2,-1.700164490E0,3.325634308E0,1.248972748E1,1.303624545E1
2.368463946E2,-3.433709564E0,1.468446350E-1,8.357720032E0,9.036780890E0
2.370467386E2,-4.354444885E-1,2.349663849E0,6.127208405E0,6.576717642E0
2.372470826E2,-1.076261902E0,3.023263092E0,1.087847809E1,1.134194626E1
2.374474266E2,-1.319506073E0,2.004182281E0,8.762628021E0,9.085234875E0
2.376477706E2,2.808160400E-1,2.750679932E0,7.327113190E0,7.831454873E0
2.378481147E2,3.222798157E-1,3.613785095E0,1.436517746E1,1.481626236E1
2.380484587E2,-1.046773224E0,1.193767548E0,6.580465851E0,6.769294347E0
2.382488017E2,-9.885443115E-1,2.061513062E0,1.071726334E1,1.095841181E1
2.384491457E2,3.564088440E-1,-9.175918579E-2,1.713606537E1,1.714001702E1
2.386494897E2,-1.792672119E0,1.476379852E0,8.663534088E0,8.969403196E0
2.388498328E2,-6.060896301E-1,3.880680084E0,1.147244293E1,1.212616878E1
2.390501758E2,-1.535207520E0,3.069067841E0,7.564369812E0,8.306366847E0
2.392505198E2,-1.049018555E0,3.049009552E0,5.492378540E0,6.368918370E0
2.394508628E2,-7.203021240E-1,2.877017212E0,1.464913696E1,1.494634661E1
2.396512068E2,-3.707789612E-1,1.337618408E0,8.538094940E0,8.650188741E0
2.398515506E2,5.110372925E-1,4.120032349E0,9.679022369E0,1.053182319E1
2.400518946E2,7.602690125E-1,4.331542511E0,1.458132797E1,1.523008191E1
2.402522376E2,-8.291258240E-1,1.627116394E0,9.378148041E0,9.554298408E0
2.404525816E2,-6.882687378E-1,2.272574158E0,9.636510773E0,9.924749217E0
2.406529246E2,-1.615440674E0,-1.043929138E0,1.816697159E1,1.826850550E1
2.408532680E2,-5.426216125E-1,2.089355164E0,6.565796356E0,6.911550116E0
2.410536110E2,-1.336570587E0,2.784808960E0,1.265004410E1,1.302172022E1
2.412539540E2,-2.789449310E0,2.211351471E0,8.208330688E0,8.946943359E0
2.414542970E2,-1.429976349E0,1.857337646E0,5.468727722E0,5.949917511E0
2.416546410E2,-9.494755554E-1,4.528981934E0,1.298938843E1,1.378903162E1
2.418549842E2,-1.574725342E-1,2.116598511E0,7.905959473E0,8.185901419E0
2.420553272E2,-9.632469177E-1,3.401676178E0,8.074359283E0,8.814449687E0
2.422556702E2,-6.915618896E-2,4.269870758E0,1.404304733E1,1.467800250E1
2.424560132E2,-8.126600647E-1,8.153544617E-1,7.911497955E0,7.994812016E0
2.426563562E2,-5.725593567E-1,3.558250580E0,9.460476837E0,1.012371441E1
2.428566992E2,-8.663983154E-1,2.550097046E0,1.143786484E1,1.175067628E1
2.430570422E2,-2.395917664E0,7.529342651E-1,5.401667175E0,5.956957254E0
2.432573852E2,-9.412426758E-1,3.252436523E0,9.092392273E0,9.702364576E0
2.434577282E2,-3.269351349E0,-1.703457642E-1,1.273401947E1,1.314811499E1
2.436580712E2,-1.499282227E0,2.474354553E0,6.500232697E0,7.115005464E0
2.438584146E2,-2.695145416E0,3.547023926E0,8.083789673E0,9.229996913E0
2.440587576E2,-9.514215088E-1,-1.196162567E0,1.184426971E1,1.194247599E1
2.442591006E2,-1.472487946E0,2.836750946E0,4.098626862E0,5.197510830E0
2.444594426E2,-2.011666718E0,3.658991089E0,1.093221634E1,1.170249430E1
2.446597856E2,-3.324586487E0,-4.309538269E-1,8.059989166E0,8.729376946E0
2.448601280E2,-1.023122406E0,2.046993256E0,5.109774170E0,5.598817100E0
2.450604700E2,-2.921923828E0,2.873274994E0,1.379246841E1,1.438838188E1
2.452608130E2,-5.430108032E0,-1.169218597E0,1.403316788E1,1.509247978E1
2.454611560E2,-1.451232147E0,2.967429199E0,4.348457336E0,5.460841694E0
2.456614980E2,-3.283122711E0,3.006348267E0,1.426294006E1,1.494150206E1
2.458618409E2,-3.002606049E0,1.544787598E0,9.101373596E0,9.707575039E0
2.460621829E2,-2.034120026E0,2.514171753E0,6.804699554E0,7.534098480E0
2.462625259E2,-5.391488342E0,3.612886963E0,1.124776016E1,1.298588493E1
2.464628679E2,-2.476599884E0,1.838327179E0,7.745642853E0,8.337144416E0
2.466632109E2,-3.902834015E0,3.940555573E0,8.307723999E0,9.988912334E0
2.468635531E2,-4.036056976E0,3.636986847E0,1.288939636E1,1.398763625E1
2.470638951E2,-2.307002563E0,1.005159760E0,7.312743073E0,7.733616115E0
2.472642371E2,-2.818339233E0,3.619173889E0,8.606352997E0,9.752474946E0
2.474645801E2,-5.275479584E0,-1.353934479E0,1.410262344E1,1.511779784E1
2.476649221E2,-3.475622406E0,1.946552124E0,3.995191956E0,5.641859183E0
2.478652639E2,-3.391796722E0,3.747307434E0,1.332828369E1,1.425446401E1
2.480656059E2,-3.275338898E0,2.022893372E0,7.962541809E0,8.844321034E0
2.482659479E2,-1.152453461E0,2.887645111E0,6.200406189E0,6.936258370E0
2.484662899E2,-1.836381226E0,3.162623291E0,1.384605698E1,1.432088600E1
2.486666329E2,8.307723999E-1,1.667831726E0,7.024292908E0,7.267223424E0
2.488669752E2,5.528004456E-1,3.932322693E0,8.158334656E0,9.073432341E0
2.490673172E2,-1.076561279E0,1.490600281E0,1.458477081E1,1.470021813E1
2.492676592E2,-2.724334717E-1,1.791025543E0,7.362739105E0,7.582342621E0
2.494680012E2,-3.844006348E-1,2.379002838E0,9.933642883E0,1.022177476E1
2.496683422E2,-1.554367676E0,-1.428180084E0,1.043629761E1,1.064763190E1
2.498686839E2,-6.170169067E-1,1.931882629E0,7.778724060E0,8.038745447E0
2.500690259E2,-1.939516754E0,1.167871399E0,1.190444458E1,1.211781538E1
2.502693679E2,-2.369572449E0,1.288819885E0,6.215524750E0,6.775594306E0
2.504697099E2,-1.951940918E-1,2.070045319E0,6.346502380E0,6.678419036E0
2.506700509E2,-2.333647156E-1,8.568182373E-1,1.222687408E1,1.225908016E1
2.508703931E2,1.459914093E0,2.075134735E0,6.579118652E0,7.051406638E0
2.510707351E2,-1.054856415E0,1.866768036E0,8.610095215E0,8.873065117E0
2.512710771E2,-2.897225189E0,-1.212478638E0,1.289822800E1,1.327510089E1
2.514714181E2,-2.048490143E0,7.387138367E-1,7.732769623E0,8.033538202E0
2.516717601E2,-6.045927429E-1,8.098159790E-1,1.107082809E1,1.111685967E1
2.518721016E2,-4.168681183E0,-2.551743622E0,1.169158722E1,1.267211545E1
2.520724436E2,-1.342707825E-1,2.110610962E0,4.518054657E0,4.988539381E0
2.522727846E2,-2.751128998E0,3.404819641E0,1.368618942E1,1.436917842E1
2.524731266E2,-1.522933044E0,1.996099091E0,4.785398712E0,5.404051949E0
2.526734676E2,3.953279114E-1,3.518732758E0,6.095773773E0,7.049554757E0
2.528738086E2,-1.200503540E-1,4.385430450E0,1.387434814E1,1.455142429E1
2.530741506E2,-1.490899658E-1,1.656904449E0,7.403454437E0,7.588062847E0
2.532744916E2,-5.697152710E-1,4.101021881E0,9.035660248E0,9.939120287E0
2.534748326E2,-9.102571106E-1,1.472338257E0,1.539338928E1,1.549040934E1
2.536751746E2,-8.104147339E-1,9.562115479E-1,8.466094666E0,8.558380188E0
2.538755151E2,1.004411316E-1,3.587589569E0,8.996741180E0,9.686188064E0
2.540758561E2,-1.805245972E-1,3.996688843E-1,1.049991531E1,1.050906970E1
2.542761971E2,-1.516346741E-1,2.623145142E0,4.912634125E0,5.571163034E0
2.544765381E2,-6.007008362E-1,3.363655243E0,1.454585175E1,1.494178105E1
2.546768791E2,-2.161056061E0,1.830842743E0,6.656058655E0,7.233620481E0
2.548772207E2,-2.932402039E-1,1.728156281E0,7.196135559E0,7.406543116E0
2.550775617E2,1.844763794E0,4.469854889E0,1.138936569E1,1.237337493E1
2.552779027E2,2.001338196E0,1.916464691E0,7.175777893E0,7.692202536E0
2.554782437E2,-3.956272888E-1,2.862497406E0,9.703870697E0,1.012499476E1
2.556785847E2,-2.066003723E0,2.570155334E0,1.423405014E1,1.461103190E1
2.558789256E2,-2.702929230E0,2.100432129E0,9.145831146E0,9.765442586E0
2.560792666E2,-1.350791016E0,3.233875122E0,6.863826599E0,7.706795719E0
2.562796066E2,-3.135679321E0,7.146139526E-1,1.603285950E1,1.635223965E1
2.564799476E2,-1.087937622E0,1.967957611E0,4.089346161E0,4.666820915E0
2.566802886E2,-2.503992920E0,3.273392944E0,1.151570297E1,1.223096467E1
2.568806288E2,-2.963537292E0,-1.354084167E0,1.151330795E1,1.196546519E1
2.570809688E2,-1.306932220E0,2.048340454E0,7.468119965E0,7.853444229E0
2.572813098E2,2.137554932E-1,4.577181702E0,1.043495041E1,1.139668696E1
2.574816498E2,-3.054697723E0,1.041234741E0,8.218808899E0,8.829732028E0
2.576819908E2,-2.838098145E-1,4.821473694E0,5.349575500E0,7.207295930E0
2.578823324E2,-6.034102020E0,5.027894440E0,7.155270538E0,1.062487676E1