"time","Gyroscope x","Gyroscope y","Gyroscope z","abs Gyroscope"
5.772740775E1,7.158207893E-2,-2.744056284E-3,-1.022492200E-1,1.248456121E-1
5.792778175E1,-4.540952742E-1,-1.962773055E-1,-8.492032290E-1,9.827885952E-1
5.812815475E1,-2.008035965E-2,-3.631184101E-1,-7.033766508E-1,7.918313668E-1
5.832852875E1,1.233495399E-1,-3.221977651E-1,2.181337327E-1,4.081774543E-1
5.852890175E1,4.358048737E-1,1.105967522E0,9.670987129E-1,1.532439221E0
5.872927383E1,3.856835365E-1,2.023591399E-1,4.226640463E-1,6.069150747E-1
5.892964783E1,-6.186392624E-3,1.166704223E-1,-3.048569858E-1,3.264782392E-1
5.913002083E1,-3.128042221E-1,-1.368980110E-1,-3.539310098E-1,4.917872573E-1
5.933039383E1,-2.634129524E-1,-2.012023032E-1,1.364042163E-1,3.584338998E-1
5.953076783E1,-1.331388801E-1,3.618150949E-2,2.055278271E-1,2.475414122E-1
5.973114121E1,-4.393874407E-1,6.834051013E-1,2.166514099E-1,8.408577103E-1
5.993151421E1,6.764012575E-2,-3.544560447E-2,-1.662531644E-1,1.829527047E-1
6.013188721E1,-2.240601927E-1,-3.060796857E-2,-4.350104630E-1,4.902794312E-1
6.033226021E1,-1.139470190E-1,-1.689270884E-1,-5.228914022E-1,5.611913247E-1
6.053263321E1,3.577701151E-1,-2.908008993E-1,-1.143003032E-1,4.750043975E-1
6.073300637E1,-2.313664854E-1,5.154189467E-1,8.864345551E-1,1.051167618E0
6.093337837E1,3.107001781E-1,2.129680514E-1,5.083532929E-1,6.327029809E-1
6.113375137E1,1.175458506E-1,3.669751883E-1,-9.385198355E-2,3.966056109E-1
6.133412437E1,-4.414728880E-1,-2.953843176E-1,-2.809463441E-1,6.009002032E-1
6.153449737E1,-3.474446535E-1,-9.930317998E-1,-1.266421974E-1,1.059654750E0
6.173486896E1,-4.557912350E-1,3.309835494E-1,9.538710862E-2,5.713094261E-1
6.193524196E1,9.896183759E-2,1.108966246E-1,5.164349079E-1,5.373979166E-1
6.213561396E1,5.437526107E-1,-6.032990813E-1,-1.078638434E-1,8.193114743E-1
6.233598696E1,6.310327649E-1,5.904138684E-1,-2.199383825E-1,8.917195627E-1
6.253635896E1,-3.159483075E-1,-9.275343269E-2,-8.033021092E-1,8.681709572E-1
6.273673237E1,3.957340717E-1,3.699168563E-1,2.166464329E-1,5.834206141E-1
6.293710437E1,-2.225509658E-2,4.062848389E-1,1.094054222E0,1.167269164E0
6.313747637E1,2.817209661E-1,-1.389415860E-1,5.305876136E-1,6.165992886E-1
6.333784937E1,-1.679070145E-1,1.558884829E-1,-4.445179999E-1,5.000902287E-1
6.353822137E1,3.251391053E-1,-1.000327319E-1,-4.942804873E-1,6.000293204E-1
6.373859300E1,-4.980269372E-1,-4.972415864E-1,1.269635856E-1,7.151222116E-1
6.393896500E1,9.385339618E-1,1.178475469E-1,4.372311234E-1,1.042067703E0
6.413933700E1,-6.531716883E-2,6.776126027E-1,4.565208852E-1,8.196563247E-1
6.433970900E1,-3.728628159E-3,1.723987516E-3,-1.208125427E-1,1.208823613E-1
6.454008100E1,1.343335748E0,3.232569993E-1,-1.596044302E-1,1.390870085E0
6.474045300E1,-2.101047635E-1,-3.366138339E-1,-6.238029599E-1,7.393125304E-1
6.494082500E1,6.078474969E-2,4.926041067E-1,2.889042795E-1,5.742989417E-1
6.514119700E1,1.628093570E-1,-3.895274997E-1,6.638008952E-1,7.866830291E-1
6.534156900E1,-1.868822426E-1,2.277427018E-1,1.419073045E-1,3.270006022E-1
6.554194000E1,2.681233883E-1,-2.491756082E-1,-2.505822778E-1,4.435877737E-1
6.574231258E1,3.382678628E-1,-3.556720614E-1,-2.680195272E-1,5.592514902E-1
6.594268458E1,-2.290430367E-1,6.523805112E-2,7.942223921E-3,2.382851126E-1
6.614305558E1,1.207049251E0,-1.085844487E-1,-2.744734520E-3,1.211926569E0
6.634342758E1,1.994974464E-1,1.193475008E0,5.412050486E-1,1.325550727E0
6.654379858E1,2.729536295E-1,-4.816195071E-1,5.238663033E-2,5.560623998E-1
6.674417083E1,8.354682326E-1,7.483117580E-1,1.724242568E-1,1.134772127E0
6.694454183E1,-6.018972993E-1,-2.985685766E-1,-5.076863766E-1,8.421217316E-1
6.714491383E1,6.930120587E-1,3.848842978E-1,7.180731893E-1,1.069593727E0
6.734528483E1,-1.716298759E-1,-4.368161559E-1,7.212799191E-1,8.605288433E-1
6.754565583E1,-6.835745573E-1,1.203787178E-1,-2.350436896E-1,7.328101713E-1
6.774602733E1,3.354351223E-1,-5.928142667E-1,-3.587171435E-1,7.698204109E-1
6.794639833E1,2.084638365E-2,5.848296359E-2,-4.114603698E-1,4.161183301E-1
6.814676933E1,8.774887770E-2,-2.703026831E-1,3.706077859E-2,2.865953722E-1
6.834714033E1,2.120414972E-1,-5.051469803E-1,-3.565360308E-1,6.536459359E-1
6.854751133E1,-1.356262714E-1,8.747204542E-1,7.542123795E-1,1.162913011E0
6.874788200E1,2.468959428E-2,-2.681512237E-1,-8.038395643E-2,2.810271077E-1
6.894825300E1,1.055999041E0,5.064724088E-1,2.343056537E-2,1.171408241E0
6.914862400E1,-4.033341408E-1,-2.351061404E-1,-6.394829750E-1,7.917649914E-1
6.934899500E1,2.463839948E-1,3.889856637E-1,2.625615895E-1,5.300504766E-1
6.954936600E1,-2.414443940E-1,-6.312577128E-1,6.190685630E-1,9.165301856E-1
6.974973733E1,-4.501478001E-2,3.323399723E-1,3.332200944E-1,4.727703659E-1
6.995010833E1,-5.107586458E-2,-1.952244043E-1,-3.423013985E-1,3.973557089E-1
7.015047933E1,-2.955767214E-1,-1.333931237E-1,-5.135501623E-1,6.073656995E-1
7.035084933E1,-1.608247757E-1,-4.364967048E-1,2.917517163E-2,4.660956688E-1
7.055122033E1,-6.398743987E-1,3.698636964E-2,-4.490708411E-1,7.826058126E-1
7.075159096E1,9.910258651E-2,4.770759344E-1,4.150343835E-1,6.400596139E-1
7.095196096E1,2.994225025E-1,-1.236013293E0,-6.468699127E-2,1.273407674E0
7.115233196E1,8.346715569E-1,1.088612914E0,-3.578961641E-2,1.372237436E0
7.135270196E1,-4.116817117E-1,-2.957072556E-1,-3.835598826E-1,6.356436079E-1
7.155307296E1,2.445874736E-2,3.090129495E-1,1.139481962E-1,3.302596322E-1
7.175344371E1,-4.445247054E-1,-2.498700768E-1,9.644635916E-1,1.090975384E0
7.195381371E1,-4.882231355E-3,4.259392023E-1,3.698153794E-1,5.641023445E-1
7.215418371E1,1.403665096E-1,1.649440378E-1,-2.704914510E-1,3.465182790E-1
7.235455471E1,-1.054446697E0,-2.052083760E-1,-6.996867657E-1,1.282002295E0
7.255492471E1,-2.768800557E-1,-2.612396181E-1,-3.154999614E-1,4.944177676E-1
7.275529400E1,1.844425127E-2,-5.230792761E-1,-8.373524547E-1,9.874772163E-1
7.295566400E1,2.596046925E-1,6.024402380E-2,5.605857968E-1,6.207095733E-1
7.315603400E1,3.522127122E-2,-2.753263712E-1,-1.665959805E-1,3.237273071E-1
7.335640400E1,3.177297711E-1,4.797496796E-1,-4.322196543E-1,7.196706136E-1
7.355677400E1,-3.139241636E-1,-1.136097312E-1,-5.558133125E-1,6.483702568E-1
7.375714458E1,3.993960917E-1,2.143082172E-1,4.561407864E-1,6.430471733E-1
7.395751458E1,-1.758830100E-1,2.740612924E-1,1.052715778E0,1.101932364E0
7.415788458E1,1.008853242E-1,-2.138657309E-2,2.849740088E-1,3.030600928E-1
7.435825358E1,7.901865244E-2,-2.825583518E-1,-7.051845193E-1,7.637855562E-1
7.455862358E1,-1.031627432E-1,-1.232341826E-1,-6.230864525E-1,6.434795588E-1
7.475899321E1,1.195555851E-1,-9.603030682E-1,2.599343956E-1,1.002018668E0
7.495936221E1,6.531549096E-1,-6.005383730E-1,-3.128276169E-1,9.408075209E-1
7.515973221E1,-1.395739913E-1,1.185367465E0,6.400242448E-1,1.354329340E0
7.536010121E1,-1.593720615E-1,-7.284500599E-1,-3.271555007E-1,8.142908973E-1
7.556047121E1,1.322529912E0,2.601335049E-1,2.456308007E-1,1.370069085E0
7.576083987E1,-5.680868626E-1,-1.268037111E-1,-3.143904507E-1,6.615460831E-1
7.596120987E1,-3.209918505E-3,1.844407469E-1,1.849495769E-1,2.612183735E-1
7.616157887E1,-3.971472383E-1,-3.073599637E-1,9.069263935E-1,1.036682960E0
7.636194788E1,-3.694979548E-1,1.358789057E-1,1.865170896E-1,4.356379694E-1
7.656231787E1,1.594995409E-1,1.654817462E-1,-1.683134139E-1,2.848749149E-1
7.676268725E1,-2.704266012E-1,1.227192059E-1,-7.650631070E-1,8.206778344E-1
7.696305625E1,-5.096746087E-1,-1.162584871E-1,-2.577250898E-1,5.828434305E-1
7.716342525E1,3.358338494E-3,-3.893275857E-1,-6.628946662E-1,7.687760310E-1
7.736379425E1,1.550826281E-1,6.271402240E-1,7.001843452E-1,9.526875665E-1
7.756416325E1,3.865322173E-1,1.131306514E-1,-7.220781446E-1,8.268026041E-1
7.776453196E1,9.480208755E-1,3.310368359E-1,7.157834768E-1,1.233156500E0
7.796490096E1,-5.819112062E-1,-3.026064336E-1,-4.675353765E-1,8.054692011E-1
7.816526996E1,7.582190633E-1,5.386644602E-1,1.808274239E-1,9.474988685E-1
7.836563896E1,-5.930308104E-1,-6.652160883E-1,4.918611646E-1,1.017902447E0
7.856600696E1,-1.983636618E-1,4.636812508E-1,3.118828833E-1,5.929750227E-1
7.876637600E1,-1.157105267E-1,-2.872214615E-1,-5.346923470E-1,6.178842933E-1
7.896674500E1,-1.750772744E-1,3.467538580E-2,-6.878738999E-1,7.106510653E-1
7.916711300E1,-7.752996683E-2,-1.581387669E-1,-6.563511491E-2,1.879540733E-1
7.936748200E1,5.337049365E-1,-1.990678608E-1,-2.562780380E-1,6.246178073E-1
7.956785100E1,4.356688559E-1,5.726625323E-1,5.657655001E-1,9.153361836E-1
7.976821900E1,6.260128319E-2,-2.864431143E-1,-1.389841735E-1,3.244767771E-1
7.996858800E1,1.168729544E0,4.574601352E-1,1.426789165E-1,1.263153116E0
8.016895600E1,-1.994074881E-1,-1.641169637E-1,-1.529991180E-1,3.001773712E-1
8.036932400E1,3.870579898E-1,1.351592541E-1,4.387640953E-1,6.004963304E-1
8.056969300E1,-3.861339688E-1,-5.091430545E-1,4.892557263E-1,8.047964075E-1
8.077006071E1,-1.179285720E-1,8.749828488E-2,2.311283350E-1,2.738309792E-1
8.097042871E1,-1.151712686E-1,-1.473315507E-1,-1.702001989E-1,2.528618489E-1
8.117079671E1,-5.665461421E-1,-1.426825672E-1,-5.783568025E-1,8.220884606E-1
8.137116471E1,-1.321274638E-1,-1.045538485E-1,-1.746445000E-1,2.426723621E-1
8.157153271E1,2.514739633E-1,-5.003084540E-1,-3.915299103E-2,5.613204611E-1
8.177190146E1,1.232134923E-1,8.247831464E-1,7.171328664E-1,1.099876516E0
8.197226946E1,-1.496558785E-1,-4.238665104E-1,-1.945969015E-1,4.898241059E-1
8.217263746E1,8.187799454E-1,6.564934254E-1,1.401323378E-1,1.058782928E0
8.237300546E1,-1.227551579E0,1.186265517E-2,-7.008401752E-1,1.413577219E0
8.257337346E1,5.098410845E-1,-1.298384741E-2,1.961242259E-1,5.464167125E-1
8.277374158E1,-2.118646502E-1,-1.234809086E-1,9.389655590E-1,9.704589047E-1
8.297410958E1,7.299917936E-2,1.796064079E-1,5.412355065E-1,5.749114849E-1
8.317447658E1,-1.413707882E-1,4.612571895E-1,-3.542334437E-1,5.985191954E-1
8.337484458E1,-6.995601207E-2,-2.218902111E-1,-8.975819945E-1,9.272445990E-1
8.357521258E1,-5.240851641E-2,-1.307132125E0,-3.680438101E-1,1.358969202E0
8.377557912E1,-1.482618898E-1,-1.002364829E-1,-2.565993071E-1,3.128452411E-1
8.397594712E1,1.067397594E-1,1.130720377E0,6.978024840E-1,1.332985466E0
8.417631412E1,4.208960757E-2,-2.806877494E-1,-1.970917881E-1,3.455464088E-1
8.437668212E1,9.990722537E-1,4.650583267E-1,-9.719954431E-2,1.106287651E0
8.457704912E1,-1.057963371E-1,-3.600150645E-1,-5.054288507E-1,6.294934747E-1
8.477741575E1,1.149404719E-1,-1.003701612E-1,1.281065494E-1,1.992404812E-1
8.497778375E1,-2.526399493E-1,-1.732054912E-2,9.379506707E-1,9.715340478E-1
8.517815075E1,-3.708371818E-1,4.881605804E-1,3.000085354E-1,6.825145339E-1
8.537851775E1,3.845905364E-1,-1.187693596E0,5.625766516E-2,1.249676311E0
8.557888475E1,1.518192887E-1,7.708008289E-1,-2.177515179E-1,8.152292548E-1
8.577925233E1,4.626333416E-1,-1.756665349E0,2.458494455E-1,1.833124302E0
8.597962033E1,3.460464478E-1,-1.494141854E-2,-4.523024857E-1,5.696919594E-1
8.617998733E1,1.124016047E-1,8.266751766E-1,4.241837561E-1,9.359261869E-1
8.638035433E1,8.136580139E-2,-2.175723016E-2,-8.997623622E-2,1.232456644E-1
8.658072133E1,8.977596164E-1,8.158896118E-2,2.787080407E-1,9.435609463E-1
8.678108688E1,-5.315653682E-1,-9.564931691E-2,-6.528395414E-1,8.472956977E-1
8.698145387E1,9.301534295E-2,3.590618074E-1,3.144860268E-1,4.862907531E-1
8.718182087E1,5.152339861E-2,-2.200468332E-1,6.341370344E-1,6.732050563E-1
8.738218787E1,-1.830170155E-1,-1.124202553E-2,1.591731459E-1,2.428120702E-1
8.758255487E1,-7.303822041E-1,-9.586158991E-1,-1.121570230E0,1.646305678E0
8.778292175E1,-3.201747537E-1,2.340039797E-2,-6.587046385E-1,7.327695765E-1
8.798328875E1,-3.767554760E-1,8.626937270E-1,8.739484102E-2,9.454221351E-1
8.818365575E1,3.546276987E-1,-2.397224456E-1,6.149267778E-2,4.324453781E-1
8.838402175E1,3.165117502E-1,5.966412425E-1,7.785536051E-1,1.030682384E0
8.858438875E1,3.129255492E-3,-7.541032135E-2,5.815414339E-2,9.528070739E-2
8.878475433E1,7.454472184E-1,4.156638384E-1,9.639047831E-2,8.589290461E-1
8.898512133E1,-2.931590676E-1,-3.280331790E-1,-4.034451842E-1,5.969221240E-1
8.918548733E1,2.532058060E-1,8.061245829E-2,2.075037062E-1,3.371488347E-1
8.938585333E1,-1.110674366E-1,-7.915791869E-2,7.602124810E-1,7.723502883E-1
8.958622033E1,-9.913283587E-2,3.482607901E-1,3.992385268E-1,5.389845066E-1
8.978658675E1,2.087989300E-1,-1.063808147E-2,-2.163013220E-1,3.008262353E-1
8.998695275E1,-3.184260726E-1,-1.735541373E-1,-3.607839346E-1,5.115478959E-1
9.018731875E1,-6.849601865E-1,-1.519724578E-1,-4.867352247E-1,8.539187690E-1
9.038768575E1,-8.664268255E-1,8.092808127E-1,7.020234317E-2,1.187669671E0
9.058805175E1,-3.292678297E-2,-1.914627552E-1,4.188151956E-1,4.616798974E-1
9.078841708E1,-2.638069391E-1,-1.116497442E-1,-3.676639497E-1,4.660864152E-1
9.098878308E1,-4.043890536E-1,9.851803631E-2,-1.073497415E0,1.151361372E0
9.118914908E1,9.494790435E-2,-2.389173359E-1,-3.702711761E-1,4.507741583E-1
9.138951508E1,-6.515814923E-3,1.664566100E-1,3.303663805E-2,1.698283790E-1
9.158988108E1,6.382066011E-1,-2.081117630E-1,1.169928670E0,1.348833297E0
9.179024662E1,1.290863473E-2,3.700857162E-1,6.024410129E-1,7.071529143E-1
9.199061162E1,-3.517410755E-1,3.289755061E-2,-3.265255094E-1,4.810643837E-1
9.219097762E1,9.263905138E-2,-5.126403570E-1,-3.075853586E-1,6.049718029E-1
9.239134362E1,-5.563930273E-1,-4.654821008E-2,-5.069717169E-1,7.541619577E-1
9.259170862E1,-9.262508154E-2,5.417307019E-1,3.960044980E-1,6.774002669E-1
9.279207508E1,-4.961430430E-1,-4.276661575E-1,2.706087530E-1,7.087209314E-1
9.299244008E1,-7.114954293E-2,-1.397295892E-1,-1.643607914E-1,2.271587228E-1
9.319280608E1,7.794288993E-1,6.403072476E-1,-2.474969625E-1,1.038632527E0
9.339317108E1,-8.018784225E-2,-2.040000260E-1,-4.135487378E-1,4.680477103E-1
9.359353708E1,9.282250702E-2,2.113198042E-1,2.650606632E-1,3.514672569E-1
9.379390200E1,-5.443773270E-1,-6.541880965E-1,5.803152323E-1,1.030084709E0
9.399426800E1,1.419652253E-1,-1.230960786E-1,3.985766470E-1,4.406473798E-1
9.419463300E1,-4.645091593E-1,-1.753475517E-1,-3.075879514E-1,5.840598179E-1
9.439499800E1,-5.196834207E-1,-5.648332238E-1,-1.273966193E0,1.487312102E0
9.459536300E1,5.438176915E-2,-1.614318192E-1,1.141039357E-1,2.050300397E-1
9.479572821E1,-2.352689393E-3,-6.012132168E-1,-5.687342882E-1,8.275998778E-1
9.499609421E1,6.124170497E-2,2.631660998E-1,4.439494573E-3,2.702344383E-1
9.519645921E1,-9.063819796E-2,2.432208806E-1,3.174131513E-1,4.100277897E-1
9.539682421E1,6.516866684E-1,7.186763287E-1,2.778777480E-1,1.009161643E0
9.559718921E1,-3.106692731E-1,-2.518729270E-1,-2.792287171E-1,4.877745843E-1
9.579755471E1,3.211940229E-1,1.282321513E-1,3.713039681E-2,3.478329359E-1
9.599791971E1,-2.610603571E-1,-5.156387687E-1,6.649730802E-1,8.810363484E-1
9.619828471E1,-2.641735971E-1,1.606623977E-1,4.636113346E-2,3.126490847E-1
9.639864971E1,2.585440874E-1,-1.010587364E-1,-3.881753087E-1,4.772190101E-1
9.659901371E1,6.385802627E-1,-2.254795581E-1,-5.028086901E-1,8.434704273E-1
9.679937858E1,2.315823883E-1,-2.962049246E-1,4.172822833E-1,5.616869803E-1
9.699974358E1,3.381991982E-1,-1.444177330E-1,-2.597313523E-1,4.502172305E-1
9.720010858E1,3.146185577E-1,6.627088189E-1,3.436451256E-1,8.100986285E-1
9.740047258E1,5.120503157E-2,-5.461037159E-1,-8.080735058E-2,5.544195629E-1
9.760083758E1,6.868664622E-1,7.291362286E-1,4.758843482E-1,1.109004549E0
9.780120246E1,-9.011235833E-1,-2.682205141E-1,-5.062747598E-1,1.067838981E0
9.800156646E1,1.156404763E-1,5.716585517E-1,5.338949561E-1,7.907022472E-1
9.820193146E1,-3.167836368E-1,3.976637498E-2,6.593847275E-1,7.326127599E-1
9.840229546E1,-3.032683022E-2,3.785361648E-1,5.262948871E-1,6.489958804E-1
9.860266046E1,-2.530369759E-1,-2.368325293E-1,-6.388979554E-1,7.268479590E-1
9.880302396E1,-2.367926836E-1,-2.679165602E-1,-8.360459208E-1,9.092979930E-1
9.900338896E1,-1.224992633E0,-2.290901393E-1,-2.025374472E-1,1.262580952E0
9.920375296E1,-7.095653415E-1,4.928566813E-1,8.714391850E-3,8.639829991E-1
9.940411696E1,6.473145485E-1,3.935363889E-1,3.646525443E-1,8.407487687E-1
9.960448096E1,-5.116516948E-1,1.189977825E-1,3.347692192E-1,6.229111968E-1
9.980484675E1,1.286484122E0,5.192780495E-1,-9.480829351E-3,1.387364759E0
1.000052107E2,-7.321475446E-2,-2.874217033E-1,-7.005322576E-1,7.607345659E-1
1.002055747E2,3.198828548E-2,3.164315522E-1,1.092405617E-1,3.362821404E-1
1.004059387E2,-2.255544215E-1,1.789002866E-2,3.525338769E-1,4.188973437E-1
1.006063027E2,-6.232108548E-2,3.777882159E-1,9.147928953E-1,9.916924398E-1
1.008066667E2,1.318843961E-1,-1.134389639E-1,-2.719550133E-1,3.228334272E-1
1.010070307E2,-5.033323541E-2,-1.975927502E-1,-6.016088724E-1,6.352240273E-1
1.012073947E2,-3.643832505E-1,-4.421124756E-1,-3.722914457E-1,6.832565513E-1
1.014077587E2,-7.796087768E-3,2.478914410E-1,-1.615054160E-1,2.959644318E-1
1.016081227E2,4.969477355E-1,2.730040550E-1,7.560739517E-1,9.450587740E-1
1.018084859E2,-4.782142118E-2,-8.187089115E-2,-2.324621230E-1,2.510545156E-1
1.020088499E2,6.612770557E-1,-1.494574100E-1,-5.080995560E-1,8.472248938E-1
1.022092139E2,9.306924045E-2,-2.569320500E-1,-4.828122854E-1,5.547825383E-1
1.024095769E2,2.243646234E-1,3.075448051E-2,2.484355569E-1,3.361629787E-1
1.026099409E2,5.275624990E-1,1.244321167E-1,1.293651700E0,1.402619073E0
1.028103051E2,3.597484529E-1,7.871899605E-1,8.492814898E-1,1.212586505E0
1.030106681E2,9.434437007E-2,6.257425547E-1,-4.772097617E-2,6.346116107E-1
1.032110321E2,1.664133519E-1,-6.002062559E-1,-1.783652455E-1,6.478851087E-1
1.034113961E2,-6.173751354E-1,-1.290874630E-1,-3.158932626E-1,7.054106494E-1
1.036117591E2,-3.460241854E-2,8.157560229E-1,-6.295111179E-1,1.030989556E0
1.038121231E2,-7.528555393E-2,-6.071385741E-1,5.879724622E-1,8.485262395E-1
1.040124861E2,-9.348434806E-1,4.282288849E-1,-9.597417116E-1,1.406561930E0
1.042128491E2,5.496616364E-1,-8.935926557E-1,-2.393611372E-1,1.076071328E0
1.044132131E2,4.754253477E-2,3.978883028E-1,-3.555058539E-1,5.356862946E-1
1.046135761E2,3.981869817E-1,-7.621852160E-1,-3.477605581E-1,9.275864281E-1
1.048139393E2,1.432871461E0,-9.894344211E-2,4.767996371E-1,1.513356641E0
1.050143033E2,6.297370046E-2,1.402238607E0,8.014512658E-1,1.616342455E0
1.052146663E2,1.128461026E-2,-2.168280035E-1,-6.857925653E-2,2.276946200E-1
1.054150293E2,1.552757323E-1,7.580227256E-1,-2.003675997E-1,7.992847931E-1
1.056153923E2,-6.547350287E-1,-3.113601506E-1,-2.343218327E-1,7.619250767E-1
1.058157550E2,-5.688004568E-2,5.405005217E-1,5.072032213E-1,7.433917280E-1
1.060161180E2,1.763785630E-1,-2.944861948E-1,6.515489221E-1,7.364424718E-1
1.062164810E2,-1.547809988E-1,-6.739115119E-1,-4.292705357E-1,8.138716584E-1
1.064168440E2,-7.601099610E-1,-3.084696829E-1,-9.683190584E-1,1.269079390E0
1.066172070E2,-4.251616001E-1,-1.992372274E-1,-8.067508936E-1,9.334371234E-1
1.068175705E2,-6.037778035E-2,-1.954175085E-1,-2.832434475E-1,3.493713348E-1
1.070179335E2,4.845726192E-1,3.404784501E-1,1.002665281E0,1.164505846E0
1.072182955E2,4.520004094E-1,4.390387237E-1,7.792273164E-1,1.002125033E0
1.074186585E2,-2.825849354E-1,1.140617132E-1,-2.407430410E-1,3.883574796E-1
1.076190215E2,2.322903126E-1,-4.842696488E-1,-5.774184689E-2,5.401944122E-1
1.078193829E2,-8.221982718E-1,-1.884191334E-1,-5.491349101E-1,1.006509273E0
1.080197459E2,3.905396909E-3,3.225409091E-1,-2.336920947E-1,3.983213342E-1
1.082201089E2,6.910175085E-1,6.016642451E-1,5.411949158E-1,1.064141437E0
1.084204709E2,-7.559577227E-1,2.524042130E-1,1.438816488E-1,8.098653555E-1
1.086208339E2,1.293533206E0,1.091980040E-1,1.119314283E-1,1.302950883E0
1.088211965E2,-1.004450321E0,-3.069324493E-1,-5.668213964E-1,1.193488363E0
1.090215595E2,-6.747847199E-1,-1.888105720E-1,-3.265542388E-1,7.730598433E-1
1.092219215E2,-5.556070805E-1,-1.740490347E-1,9.216019511E-1,1.090111210E0
1.094222835E2,-7.104490995E-1,6.147029400E-1,3.525228202E-1,1.003429104E0
1.096226465E2,-1.022505641E0,-1.552619815E0,-1.533937573E0,2.410209650E0
1.098230083E2,-2.459080368E-1,-2.162300646E-1,-8.812323213E-1,9.401045726E-1
1.100233703E2,1.586194634E-1,2.542439401E-1,9.786050767E-2,3.152408511E-1
1.102237323E2,7.469354272E-1,-7.765017450E-2,1.234450579E0,1.444925712E0
1.104240953E2,2.753063850E-2,8.403958678E-1,6.372454762E-1,1.055037889E0
1.106244573E2,3.875879049E-1,-6.753534079E-2,-3.792200089E-1,5.464368412E-1
1.108248190E2,3.612622023E-1,2.632134408E-2,-1.785685718E-1,4.038439386E-1
1.110251810E2,-3.635913134E-1,-3.821275830E-1,1.824264228E-2,5.277811354E-1
1.112255430E2,3.650445044E-1,9.254788607E-2,1.246439934E0,1.302088749E0
1.114259050E2,-8.692508936E-1,8.030098677E-2,5.286032557E-1,1.020522791E0
1.116262670E2,-4.119089618E-2,1.443692148E-1,1.322599053E-1,2.000795908E-1
1.118266292E2,-4.631818235E-1,-1.350676179E0,-1.286556959E0,1.922002172E0
1.120269902E2,-9.903190657E-4,1.836932302E-1,-9.505776763E-1,9.681642950E-1
1.122273522E2,-1.164257288E0,1.558528423E0,3.134563565E-1,1.970472219E0
1.124277142E2,1.361573935E0,-1.527401805E-1,8.662863374E-1,1.621007452E0
1.126280762E2,3.923848271E-1,4.307618141E-1,9.451326132E-1,1.110314032E0
1.128284373E2,1.102186926E-2,-1.058483571E-1,-3.623599410E-1,3.776639818E-1
1.130287993E2,4.559271634E-1,-5.345235467E-1,4.537245724E-3,7.025706988E-1
1.132291613E2,-9.803197384E-1,-1.011180952E-1,-5.813733339E-1,1.144223148E0
1.134295223E2,-2.823937833E-1,7.121620327E-2,-2.220508903E-1,3.662302478E-1
1.136298843E2,5.814618990E-2,1.999602169E-1,7.069180012E-1,7.369519171E-1
1.138302452E2,-2.097158879E-1,-5.007499456E-1,-5.275325179E-1,7.569820468E-1
1.140306072E2,7.414934635E-1,2.706518210E-2,1.073891521E-1,7.497182874E-1
1.142309682E2,-5.131195188E-1,-9.937244058E-1,-4.115190506E-1,1.191691136E0
1.144313292E2,3.507441878E-1,4.616327584E-1,4.108313844E-2,5.812177846E-1
1.146316912E2,-5.357337594E-1,-5.824365616E-1,1.265609711E-1,8.014116849E-1
1.148320520E2,-1.391612552E-2,2.691229880E-1,2.406414449E-1,3.612881761E-1
1.150324130E2,-1.724831313E-1,-5.127342939E-1,-8.136948943E-1,9.771111850E-1
1.152327750E2,-2.262240648E-1,6.546207517E-2,-5.241547227E-1,5.746309982E-1
1.154331360E2,2.685493231E-1,7.998321205E-2,1.825169474E-1,3.344076692E-1
1.156334970E2,6.601428390E-1,2.729342580E-1,5.798779726E-1,9.200761600E-1
1.158338585E2,-2.444040328E-1,2.157309353E-1,2.504907548E-1,4.111189438E-1
1.160342205E2,3.039311767E-1,-3.154437840E-1,-1.108094156E-1,4.518380989E-1
1.162345815E2,2.465484291E-1,-6.716807932E-2,-9.294761112E-4,2.555357954E-1
1.164349425E2,-5.489993095E-1,-2.918387949E-1,-5.559376255E-2,6.242281558E-1
1.166353035E2,6.452281028E-2,-3.155305684E-1,2.615487576E-1,4.148861111E-1
1.168356637E2,-6.283240318E-1,-2.921994925E-1,1.757796258E-1,7.148916766E-1
1.170360247E2,-1.067807674E-1,1.667466946E-2,-1.661316603E-1,1.981915878E-1
1.172363857E2,4.684030116E-1,1.216448247E-1,-6.571168900E-1,8.160891199E-1
1.174367467E2,-5.269163847E-1,-4.544880986E-2,-4.457862377E-1,6.916876756E-1
1.176371077E2,1.834454685E-1,-3.809723258E-2,5.287658423E-2,1.946781247E-1
1.178374693E2,5.695784092E-1,1.250718087E-1,5.432503819E-1,7.969840017E-1
1.180378303E2,-3.001540601E-1,-1.195867732E-2,3.278552294E-1,4.446622552E-1
1.182381903E2,8.148102462E-2,7.630423307E-1,1.878231913E-1,7.900318393E-1
1.184385513E2,-2.520432472E-1,-1.636509784E-2,-4.204008877E-1,4.904391107E-1
1.186389123E2,-3.444380462E-1,-1.427052766E-1,-1.564395428E-1,4.043212760E-1
1.188392735E2,-7.228015065E-1,2.235922515E-1,4.269991443E-2,7.577986510E-1
1.190396335E2,-1.615986824E-1,-1.620798185E-2,4.695035983E-3,1.624773098E-1
1.192399945E2,2.362028509E-1,3.655503988E-1,1.303148121E-1,4.543135824E-1
1.194403545E2,1.209936380E0,8.650766611E-1,4.452612251E-2,1.488047798E0
1.196407155E2,-1.657401621E-1,-1.195587441E-1,-3.287614286E-1,3.871022753E-1
1.198410765E2,9.483011812E-2,-3.187301457E-1,1.677569300E-1,3.724567688E-1
1.200414365E2,-4.177145660E-2,4.459916428E-2,6.841199398E-1,6.868435281E-1
1.202417975E2,-2.577882707E-1,-1.108969152E-1,3.388059437E-1,4.399345245E-1
1.204421575E2,-3.697540760E-1,-3.440197110E-1,-5.374323130E-1,7.374965283E-1
1.206425175E2,-3.061267436E-1,2.761245966E-1,-3.347806633E-1,5.310710578E-1
1.208428785E2,-4.261550307E-1,-8.435174078E-2,1.036441401E-1,4.466155328E-1
1.210432385E2,5.294969082E-1,-3.335678577E-1,-4.656438828E-1,7.800376382E-1
1.212435985E2,-2.986896336E-1,4.619319737E-1,2.232006788E-1,5.936456760E-1
1.214439595E2,6.622356772E-1,-9.472452998E-1,-5.098122954E-1,1.263225367E0
1.216443195E2,6.846210957E-1,2.736364603E-1,2.701266408E-1,7.852078445E-1
1.218446787E2,-2.655311525E-1,-3.281920552E-1,-6.456425786E-1,7.714085541E-1
1.220450387E2,9.632974863E-1,-4.079202712E-1,2.279496342E-1,1.070654954E0
1.222453987E2,-1.521712914E-2,-1.898285598E-1,6.289517283E-1,6.571504544E-1
1.224457587E2,-4.034034908E-1,-2.194857597E-2,3.132984936E-1,5.112455990E-1
1.226461187E2,3.892486393E-1,3.071686625E-1,-2.033422291E-1,5.359245774E-1
1.228464790E2,-7.597472072E-1,-5.860348046E-2,-1.054725885E0,1.301190563E0
1.230468390E2,9.675491601E-3,-4.132332802E-1,2.616587877E-1,4.892041294E-1
1.232471990E2,8.289320469E-1,-9.222192764E-1,-4.075121880E-1,1.305252051E0
1.234475590E2,-4.519968480E-2,6.062393188E-1,4.536098540E-1,7.585057830E-1
1.236479190E2,1.416101903E-1,-4.947068691E-1,-9.171020240E-2,5.226845067E-1
1.238482791E2,9.160454869E-1,3.343511522E-1,1.036832631E-1,9.806529693E-1
1.240486381E2,-5.530750751E-1,-1.017153934E-1,-4.164922237E-1,6.997884198E-1
1.242489981E2,2.225866467E-1,4.593428671E-1,4.697453976E-1,6.936868338E-1
1.244493581E2,-2.801297903E-1,-2.366569191E-1,5.649459958E-1,6.735303816E-1
1.246497181E2,-1.336435825E-1,9.132380784E-2,3.224612176E-1,3.608072642E-1
1.248500770E2,-1.963938922E-1,-1.821223944E-1,-4.284497797E-1,5.052804580E-1
1.250504370E2,-8.513124585E-1,-5.665390752E-3,-8.200817108E-1,1.182074029E0
1.252507960E2,-5.774232149E-1,-1.498017162E-1,1.024873704E-1,6.052782702E-1
1.254511560E2,1.412781358E0,-3.444402218E-1,-8.762507699E-3,1.454189469E0
1.256515150E2,-9.805858135E-2,7.467556596E-1,8.871268630E-1,1.163724010E0
1.258518750E2,1.603045315E-1,-7.280504704E-1,-2.902577221E-1,8.000028596E-1
1.260522340E2,4.827674925E-1,1.145218685E-1,-5.044909939E-2,4.987231916E-1
1.262525930E2,-3.593761921E-1,-1.520100981E-1,-7.408145815E-2,3.971729847E-1
1.264529530E2,-1.626786888E-1,1.641130000E-1,-5.001925677E-2,2.364304519E-1
1.266533120E2,-4.749326110E-1,-1.139096320E-1,3.187763691E-1,5.832278823E-1
1.268536711E2,-2.390136123E-1,-1.253256649E-1,-1.691895723E-1,3.185265146E-1
1.270540301E2,1.126482606E0,3.881778717E-1,-1.492792815E-1,1.200803658E0
1.272543901E2,-2.100208551E-1,1.462309714E-2,8.720071614E-2,2.278739990E-1
1.274547491E2,3.958893195E-2,-3.258719146E-1,2.909054756E-1,4.386180389E-1
1.276551081E2,2.710537910E-1,2.463207543E-1,2.510479987E-1,4.440373512E-1
1.278554675E2,-6.875296831E-1,-1.352907568E-1,3.251241446E-1,7.724677103E-1
1.280558265E2,3.676653802E-1,-2.375487834E-1,-4.139956087E-2,4.396830449E-1
1.282561855E2,6.419306993E-2,-8.442606777E-4,4.533136636E-2,7.859004886E-2
1.284565445E2,-4.407843351E-1,-2.996763587E-1,1.123581380E-1,5.447211224E-1
1.286569035E2,-3.136404157E-1,4.421743155E-1,2.074934095E-1,5.804670108E-1
1.288572623E2,-3.102656901E-1,3.245734870E-1,4.131682813E-1,6.101809368E-1
1.290576203E2,2.347836196E-1,-2.418941706E-1,1.977390349E-1,3.908156391E-1
1.292579793E2,9.519868493E-1,1.942761391E-1,-4.381521642E-1,1.065832772E0
1.294583383E2,-1.776309460E-1,-3.507127240E-2,-7.899822295E-2,1.975435809E-1
1.296586973E2,-3.289174139E-1,-6.064037234E-2,3.408129215E-1,4.775116412E-1
1.298590552E2,1.260835171E0,1.674493849E-1,1.224486232E0,1.765534241E0
1.300594142E2,-4.033670723E-1,2.248347104E-1,7.653989792E-1,8.939190340E-1
1.302597732E2,-6.222314239E-1,-4.534824491E-1,6.695743799E-1,1.020366663E0
1.304601312E2,2.709324360E-1,-2.568066716E-1,8.265496790E-2,3.823426411E-1
1.306604902E2,1.303366385E-2,-1.834729761E-1,2.504924238E-1,3.107710793E-1
1.308608481E2,-6.044571847E-2,-1.197198033E-1,7.691558003E-1,7.807606300E-1
1.310612071E2,-3.949679732E-1,-1.426227391E-1,7.039073706E-1,8.196502498E-1
1.312615651E2,-6.152399778E-1,-2.070554346E-2,-1.097527817E-1,6.252956284E-1
1.314619231E2,-1.504074931E-1,-4.866459072E-1,-8.765093237E-2,5.168455658E-1
1.316622821E2,-6.572344899E-1,8.323346823E-2,-3.645349443E-1,7.561552159E-1
1.318626403E2,-2.608102262E-1,1.980009861E-2,-8.922430128E-2,2.763602611E-1
1.320629983E2,4.100067019E-1,-1.862549633E-1,-1.898947060E-1,4.887293795E-1
1.322633573E2,1.225685924E-1,8.781333566E-1,8.945399523E-1,1.259501083E0
1.324637153E2,-8.855686337E-2,-3.494529799E-2,8.858353831E-3,9.561360956E-2
1.326640733E2,6.666992903E-1,5.226055160E-2,1.242185235E-1,6.801833212E-1
1.328644311E2,-4.919017479E-2,-3.388965502E-2,-4.096909761E-1,4.140227988E-1
1.330647891E2,3.695098162E-1,2.004815787E-1,5.750610828E-1,7.123381336E-1
1.332651471E2,-3.337065876E-1,-6.076982021E-1,5.282866359E-1,8.716329280E-1
1.334655051E2,-3.035171330E-1,-5.154715478E-2,-1.651458070E-2,3.083058393E-1
1.336658631E2,1.919781417E-1,-5.503847599E-1,-1.910315305E-1,6.134101698E-1
1.338662212E2,-1.337277412E0,1.174425334E-1,-1.013445973E0,1.682015567E0
1.340665792E2,-2.112208605E-1,-3.187824786E-1,-2.345549464E-1,4.486117959E-1
1.342669372E2,-5.037892237E-2,-3.607351333E-3,-1.235999390E-1,1.335215104E-1
1.344672952E2,1.314585656E-1,3.753360808E-1,6.756607890E-1,7.840127740E-1
1.346676532E2,-8.328644186E-2,-1.157642379E-1,-3.199023902E-1,3.502506666E-1
1.348680105E2,9.656528234E-1,6.412259340E-1,-2.081603706E-1,1.177704043E0
1.350683685E2,-3.743194342E-1,-2.377059609E-1,-5.408171415E-1,6.993585226E-1
1.352687265E2,1.767874323E-2,-2.824417949E-1,1.223115548E-1,3.082953485E-1
1.354690845E2,1.065031737E-1,2.437472492E-1,8.245041370E-1,8.663502291E-1
1.356694415E2,-3.228447139E-1,-1.163838059E-1,4.214469492E-1,5.434992462E-1
1.358697989E2,6.268925071E-1,-2.999264896E-1,-1.089966521E-1,7.034418133E-1
1.360701559E2,-9.719190001E-2,-1.446134597E-2,-4.910537899E-1,5.007885986E-1
1.362705139E2,-8.846327662E-1,-1.910572499E-1,-1.610452868E-2,9.051725580E-1
1.364708709E2,2.812443674E-1,6.389316916E-1,5.030846000E-1,8.604802238E-1
1.366712289E2,-5.110856891E-1,-4.476503730E-1,2.133720815E-1,7.121285580E-1
1.368715865E2,-2.178222686E-1,5.433293581E-1,4.382909238E-1,7.312675748E-1
1.370719445E2,5.009945855E-2,-8.369337320E-1,-7.628365159E-1,1.133528816E0
1.372723015E2,-4.977494776E-1,4.138517380E-1,-3.033288717E-1,7.148679654E-1
1.374726585E2,2.532095835E-2,-3.044459522E-1,-2.681835592E-1,4.065106519E-1
1.376730165E2,5.504328609E-1,3.107900023E-1,4.536997676E-1,7.780811262E-1
1.378733733E2,-7.913135737E-2,2.454313636E-1,3.648700714E-1,4.467980472E-1
1.380737303E2,5.833272934E-1,3.420200050E-1,-4.717395455E-2,6.778449653E-1
1.382740873E2,-4.430297613E-1,-2.413755953E-1,-3.537600040E-1,6.161847839E-1
1.384744453E2,-2.553067803E-1,-3.091514111E-1,-1.763459742E-1,4.380114721E-1
1.386748023E2,-1.838526875E-1,7.166017294E-1,2.814806700E-1,7.915498827E-1
1.388751586E2,-3.487056196E-1,-5.673630834E-1,3.596713245E-1,7.568751146E-1
1.390755156E2,-6.873489171E-2,2.076404840E-1,1.409872174E-1,2.602238486E-1
1.392758726E2,9.902368188E-1,-6.045623217E-3,-7.174864411E-1,1.222862339E0
1.394762296E2,-1.153481565E-2,-2.649757862E-1,-3.475787342E-1,4.372141302E-1
1.396765866E2,-3.880605847E-2,-2.999840379E-1,2.212772965E-1,3.747799022E-1
1.398769443E2,7.280511856E-1,1.711381078E-1,9.918198735E-2,7.544427397E-1
1.400773003E2,-4.656816423E-1,4.675728083E-2,6.256756783E-1,7.813550343E-1
1.402776573E2,-3.265660703E-1,-8.882699907E-2,-6.149408817E-1,7.019173185E-1
1.404780143E2,8.398525417E-2,2.386408672E-2,-5.606743321E-2,1.037621059E-1
1.406783713E2,-6.046316624E-1,-1.532935537E-2,-6.409737468E-2,6.082128819E-1
1.408787285E2,5.994562507E-1,3.941999674E-1,8.300698400E-1,1.097158762E0
1.410790845E2,-5.461249948E-1,-3.134457767E-1,1.577952951E-1,6.491533871E-1
1.412794415E2,-4.730201364E-1,8.687051386E-2,3.540585935E-1,5.972035023E-1
1.414797975E2,4.492448643E-2,-2.267604172E-1,-7.030956745E-1,7.401229788E-1
1.416801545E2,-8.285453320E-1,1.603812575E-1,-5.162789226E-1,9.893196858E-1
1.418805112E2,1.227586195E-1,-1.056256220E-1,3.177219033E-1,3.566141592E-1
1.420808672E2,2.704778314E-1,1.871740073E-1,-2.940588892E-1,4.412062970E-1
1.422812232E2,-3.064821064E-1,-1.064119935E-1,1.677502841E-1,3.652327364E-1
1.424815802E2,-4.558566213E-1,-5.745753646E-1,-4.978913665E-1,8.864749977E-1
1.426819362E2,1.049144745E0,4.049951136E-1,-2.320439667E-1,1.148290094E0
1.428822931E2,-4.149761200E-1,-1.364091933E-1,-2.404928505E-1,4.986476304E-1
1.430826491E2,6.806132197E-1,-1.053296104E-1,3.851689100E-1,7.891031434E-1
1.432830051E2,-3.084212244E-1,-3.520444036E-1,4.102327228E-1,6.223743251E-1
1.434833611E2,1.766330600E-1,7.837390155E-2,4.991809726E-1,5.352787589E-1
1.436837181E2,-1.522714943E-1,-2.749653161E-1,-5.157886147E-1,6.040119437E-1
1.438840743E2,-2.881770730E-1,-2.036460042E-1,-5.399452448E-1,6.450260365E-1
1.440844303E2,-4.158552885E-1,-4.050200284E-1,-1.736855507E-1,6.059236873E-1
1.442847863E2,-3.068494052E-2,-1.427117288E-1,5.218583941E-1,5.418896444E-1
1.444851423E2,-6.715129614E-1,-4.430190921E-1,5.124111176E-1,9.538137799E-1
1.446854983E2,-1.184028611E-1,3.094276786E-2,-6.606160104E-2,1.390713037E-1
1.448858542E2,-1.291489005E-1,-4.500429928E-1,-6.816288829E-1,8.269438118E-1
1.450862102E2,-2.011929005E-1,-1.309957951E-1,-5.227404237E-1,5.752356318E-1
1.452865662E2,1.200037599E-1,-2.670130432E-1,3.251904622E-2,2.945409241E-1
1.454869213E2,2.034256309E-1,4.817223251E-1,5.984407663E-1,7.947136192E-1
1.456872772E2,-4.139699787E-2,1.650163382E-1,3.717357218E-1,4.088172577E-1
1.458876332E2,3.155460358E-1,-8.487925678E-2,-2.749604285E-1,4.270562330E-1
1.460879892E2,-5.329394341E-1,-2.555596828E-1,-1.878116876E-1,6.201680594E-1
1.462883442E2,-1.058129221E-1,-1.087302193E-1,3.251586854E-2,1.551641608E-1
1.464887002E2,7.892603874E-1,-6.346766949E-1,-4.023396969E-1,1.089781491E0
1.466890562E2,1.276174486E-1,4.453866780E-1,5.033284426E-1,6.841016205E-1
1.468894115E2,3.079544567E-2,-9.431284070E-1,-2.912728488E-1,9.875623646E-1
1.470897675E2,-4.183109105E-2,-1.676670611E-1,4.902644083E-2,1.796264887E-1
1.472901225E2,-3.986037672E-1,-7.915662974E-2,-3.020828664E-1,5.063642892E-1
1.474904785E2,2.082888484E-1,6.590427756E-1,5.008785725E-1,8.535812608E-1
1.476908335E2,-1.333921254E-1,-7.079264522E-1,6.151660085E-1,9.473027704E-1
1.478911892E2,-1.273601055E-1,2.391790450E-1,-6.414511055E-2,2.784632960E-1
1.480915442E2,-2.893073261E-1,-4.547889829E-1,-6.560707688E-1,8.490939887E-1
1.482918992E2,-3.632643521E-1,3.074935377E-1,-3.950673640E-1,6.185398025E-1
1.484922552E2,-5.841637403E-2,-2.183437347E-1,1.534921527E-1,2.732147511E-1
1.486926102E2,9.769701958E-1,1.680999845E-1,7.142602652E-2,9.938963958E-1
1.488929652E2,5.323899984E-1,1.148165107E0,1.027280092E0,1.630038837E0
1.490933202E2,-2.115195096E-1,-3.313450217E-1,-4.697501361E-1,6.125318088E-1
1.492936762E2,6.681209207E-1,-3.045489490E-1,3.297601342E-1,8.049083010E-1
1.494940312E2,-5.079736710E-1,-4.804109409E-2,-6.043449640E-1,7.909349105E-1
1.496943862E2,-3.365110457E-1,5.131124854E-1,2.225601673E-1,6.527305222E-1
1.498947416E2,-2.871073782E-1,-2.061079293E-1,1.627048254E-1,3.890809497E-1
1.500950966E2,-5.882579684E-1,1.085466146E-1,-1.468418390E-1,6.159483182E-1
1.502954516E2,1.038618088E0,2.130556479E-2,8.493307233E-2,1.042302780E0
1.504958066E2,-3.285104334E-1,-1.284268349E-1,-4.552499950E-1,5.759037374E-1
1.506961616E2,2.833500803E-1,-1.845169067E-1,2.906953096E-1,4.459120091E-1
1.508965170E2,1.493387222E-1,-5.135284737E-2,8.111017346E-1,8.263323743E-1
1.510968710E2,-1.377047002E-1,3.763149381E-1,7.593269348E-1,8.585760951E-1
1.512972260E2,5.997540355E-1,2.144959867E-1,-9.513682872E-2,6.440220862E-1
1.514975810E2,-1.050708070E-1,-4.852970690E-2,-5.649632215E-1,5.766961493E-1
1.516979360E2,-1.326882005E0,3.537973464E-1,-1.062304974E-1,1.377342853E0
1.518982897E2,3.411478400E-1,4.188735485E-1,-2.251923084E-1,5.852764083E-1
1.520986447E2,8.923954517E-2,6.436634064E-1,4.678692818E-1,8.007296310E-1
1.522989997E2,-1.132700592E-1,-6.425150037E-1,-6.528014541E-1,9.229330283E-1
1.524993537E2,1.487854242E0,5.846282840E-2,4.581279755E-1,1.557886193E0
1.526997088E2,-5.278915167E-1,-4.757134616E-2,-2.810409069E-1,5.999303941E-1
1.529000635E2,1.073204428E-1,1.789634824E-1,3.701954484E-1,4.249591457E-1
1.531004175E2,4.912378639E-2,1.606194377E-1,8.443834782E-1,8.609269472E-1
1.533007725E2,-1.697358638E-1,1.448197067E-1,3.952430189E-1,4.538722892E-1
1.535011265E2,4.183425605E-1,7.405856997E-2,-6.966735721E-1,8.159958552E-1
1.537014805E2,1.676568538E-1,-2.092004567E-1,-5.145990849E-1,5.802463872E-1
1.539018356E2,-1.456462622E0,-2.449174821E-1,-9.800695777E-1,1.772513559E0
1.541021896E2,-1.044154167E-1,5.171895623E-1,-8.200772852E-2,5.339596335E-1
1.543025436E2,3.049409091E-1,-1.082277596E-1,2.340998799E-1,3.993807203E-1
1.545028986E2,-8.766503334E-1,5.280038714E-2,-7.584370375E-1,1.160400977E0
1.547032526E2,-6.750964522E-1,-9.604339004E-1,-1.316130877E0,1.763629491E0
1.549036067E2,-3.720320463E-1,-1.469357759E-1,-1.391872644E0,1.448208350E0
1.551039607E2,-4.099706709E-1,-4.632363021E-1,-6.845026612E-1,9.226091891E-1
1.553043157E2,7.887414098E-1,-1.134196110E-2,1.249499694E-1,7.986577154E-1
1.555046697E2,5.952921882E-2,1.298135668E-1,6.404905021E-2,1.565169986E-1
1.557050237E2,2.281756848E-1,-6.788164377E-1,-3.451962471E-1,7.949945586E-1
1.559053770E2,7.545646429E-1,-2.247451991E-1,-3.982302174E-2,7.883299296E-1
1.561057310E2,9.286357462E-2,-2.602052689E-1,-8.261359930E-1,8.711091231E-1
1.563060850E2,-8.678574860E-2,-3.030373454E-1,-2.173510939E-2,3.159680583E-1
1.565064390E2,-5.112106204E-1,2.098877132E-1,6.131340265E-1,8.254226100E-1
1.567067930E2,-1.415022463E-1,7.054417394E-3,8.739083260E-2,1.664626328E-1
1.569071474E2,-5.534637570E-1,-2.873901129E-1,-8.833169937E-1,1.081278927E0
1.571075014E2,-8.276236057E-1,-1.762684435E-2,-1.534534216E0,1.743578733E0
1.573078554E2,-1.003818437E-1,-5.509851873E-2,-6.140405536E-1,6.246264185E-1
1.575082094E2,2.229391634E-1,3.920410872E-1,2.575559318E-1,5.193583952E-1
1.577085624E2,2.411935478E-1,2.659582198E-1,7.201924920E-1,8.047268653E-1
1.579089164E2,6.099768281E-1,1.353274286E-1,-1.476477981E-1,6.420164453E-1
1.581092704E2,5.525533855E-2,-1.062003374E-1,-8.520278335E-2,1.469393698E-1
1.583096244E2,-1.083454847E0,-6.575883925E-2,-3.847641945E-1,1.151625858E0
1.585099784E2,-5.242718384E-2,-2.506390214E-1,2.660356760E-1,3.692472201E-1
1.587103317E2,2.362231165E-1,3.021422625E-1,7.250679731E-1,8.202529325E-1
1.589106857E2,-4.989074767E-1,3.104844093E-1,2.369296849E-1,6.335968074E-1
1.591110397E2,8.031457663E-2,-1.413145959E-1,-7.539206743E-1,7.712435604E-1
1.593113927E2,2.329345942E-1,1.361334771E-1,-2.484883815E-1,3.667932994E-1
1.595117467E2,-1.338306189E0,-3.045208454E-1,-4.596509933E-1,1.447437541E0
1.597121006E2,7.455025911E-1,-3.748440146E-1,-4.051584303E-1,9.275966270E-1
1.599124536E2,-5.248526484E-2,4.252946675E-1,5.523054600E-1,6.990504834E-1
1.601128076E2,1.607921362E0,-2.972197533E0,1.425771974E-2,3.379285806E0
1.603131606E2,7.988485098E-1,9.189912081E-1,1.898894757E-1,1.232380540E0
1.605135146E2,2.824501991E-1,-2.421922237E-2,-3.713608086E-1,4.671975341E-1
1.607138676E2,-4.953469038E-1,-3.375285268E-1,-1.572920382E-2,5.996177694E-1
1.609142216E2,-5.703476816E-2,-3.506109715E-1,1.059635282E0,1.117590242E0
1.611145746E2,-2.670269907E-1,5.128083378E-2,5.579971671E-1,6.207205298E-1
1.613149286E2,4.573462009E-1,-8.190796375E-1,1.477220207E-1,9.496729940E-1
1.615152816E2,-7.124924064E-1,1.931906641E-1,-2.356653064E-1,7.749233501E-1
1.617156345E2,-6.986517310E-1,-2.722469568E-1,-1.488316208E-1,7.644498009E-1
1.619159885E2,4.681665897E-1,-1.590265930E-1,-1.555901915E-1,5.183413168E-1
1.621163415E2,-1.835257411E-1,4.616098404E-1,1.998400688E-1,5.354450443E-1
1.623166945E2,-1.609649807E-1,-7.033230066E-1,-1.297157258E-1,7.330751300E-1
1.625170485E2,6.729099751E-1,1.379583478E-1,3.496793807E-1,7.707892121E-1
1.627174009E2,-3.113049567E-1,3.003717214E-2,-3.226383030E-1,4.493422775E-1
1.629177539E2,5.202529430E-1,3.045470715E-1,2.599084377E-1,6.564788188E-1
1.631181069E2,2.975862846E-2,1.381029189E-1,5.380719304E-1,5.563087223E-1
1.633184599E2,-2.382279485E-1,2.421262413E-1,1.797816455E-1,3.843164221E-1
1.635188129E2,2.714666072E-3,-3.829429448E-1,-8.206412196E-1,9.055963117E-1
1.637191660E2,-5.531297326E-1,1.999984980E-1,-5.718556046E-1,8.203479340E-1
1.639195190E2,-6.640917063E-2,-4.538984299E-1,1.239247695E-1,4.751750320E-1
1.641198720E2,3.678059876E-1,-4.526767135E-1,-3.314041197E-1,6.708398781E-1
1.643202250E2,1.684019119E-1,5.653331876E-1,7.087546587E-1,9.221138667E-1
1.645205780E2,1.473474950E-1,-1.020661235E0,-1.021215558E0,1.451324174E0
1.647209307E2,3.926929533E-1,-1.345208734E-1,9.988040477E-2,4.269422868E-1
1.649212837E2,1.665302813E-1,5.429058671E-1,-7.953371853E-3,5.679281392E-1
1.651216367E2,3.553215265E-1,3.066315055E-1,8.503099084E-1,9.712379769E-1
1.653219897E2,3.090111613E-1,-2.449179292E-1,8.620187640E-1,9.479182662E-1
1.655223427E2,-5.382242799E-1,-8.958443254E-2,1.347696632E-1,5.620263411E-1
1.657226967E2,7.679906487E-1,-4.055737555E-1,-5.937593579E-1,1.052069334E0
1.659230487E2,-4.530995786E-1,-2.613441646E-2,-4.189441204E-1,6.176539580E-1
1.661234017E2,-7.299540043E-1,-2.626818717E-1,1.326933783E-2,7.758934781E-1
1.663237547E2,-2.079126686E-1,-5.442985892E-1,4.371625483E-1,7.284227657E-1
1.665241077E2,4.571864903E-1,7.120586038E-1,1.140909791E0,1.420465450E0
1.667244589E2,-8.366608620E-2,1.665736437E-1,1.002460420E-1,2.116508013E-1
1.669248119E2,-7.034522891E-1,-4.989230931E-1,-3.732810616E-1,9.397383289E-1
1.671251639E2,-1.263929904E-1,4.950588644E-1,6.983166933E-2,5.156887911E-1
1.673255169E2,-2.866449580E-2,-2.930741310E-1,4.134646803E-2,2.973611104E-1
1.675258699E2,1.807368845E-1,1.722422689E-1,5.484533310E-1,6.026062370E-1
1.677262225E2,2.665994465E-1,3.541623428E-2,1.192578316E0,1.222527142E0
1.679265755E2,1.195256338E-1,-2.957752943E-1,4.621778727E-1,5.615850673E-1
1.681269275E2,5.256135464E-1,-2.363449484E-1,2.369029224E-1,6.230983304E-1
1.683272805E2,-4.285542071E-1,1.534797847E-1,-2.516779304E-1,5.201504911E-1
1.685276325E2,6.125296354E-1,2.816823125E-2,3.208917975E-1,6.920675901E-1
1.687279838E2,-6.541340798E-2,-1.363718510E-1,6.458302140E-1,6.633045010E-1
1.689283368E2,-1.161971837E-1,3.438030183E-1,7.198264003E-1,8.061341994E-1
1.691286888E2,-7.976758480E-1,-4.408289194E-1,-1.154138565E0,1.470596043E0
1.693290418E2,4.626327157E-1,-5.014914870E-1,-6.466069221E-1,9.400123685E-1
1.695293938E2,1.612066627E-1,-1.210203171E0,-6.167517900E-1,1.367831157E0
1.697297463E2,6.498151273E-2,2.749679089E-1,-1.978688240E-1,3.449377037E-1
1.699300983E2,4.962076545E-1,9.224755764E-1,7.953110337E-1,1.315181685E0
1.701304513E2,1.830928177E-1,-7.478834987E-1,-1.218313053E-1,7.795483144E-1
1.703308033E2,1.748730689E-1,-4.978589118E-1,7.725808769E-2,5.333037581E-1
1.705311553E2,-6.931849122E-1,-4.888150990E-1,-2.698016465E-1,8.900777786E-1
1.707315071E2,-1.168781221E-1,2.470709234E-1,1.552942842E-1,3.143578397E-1
1.709318591E2,2.323414534E-1,-3.861249611E-2,6.334409118E-1,6.758112640E-1
1.711322111E2,-6.631167531E-1,3.819005191E-1,-7.248907536E-2,7.686523927E-1
1.713325641E2,2.505237162E-1,-2.999638207E-3,-9.138892889E-1,9.476100266E-1
1.715329161E2,1.141626481E-2,1.053144410E-1,-2.083201706E-1,2.337065598E-1
1.717332680E2,-6.261492968E-1,5.732108653E-2,5.351231098E-1,8.256545231E-1
1.719336200E2,9.133706093E-1,-1.655006707E-1,-6.131579354E-2,9.302666115E-1
1.721339720E2,3.290402889E-1,5.526279211E-1,8.369092941E-1,1.055500970E0
1.723343240E2,6.490091085E-1,-8.513289690E-1,-3.697175682E-1,1.132547975E0
1.725346750E2,-4.676833153E-1,-5.093306303E-1,-4.999975562E-1,8.533129148E-1
1.727350271E2,-1.271983385E0,3.094012737E-1,-6.613560915E-1,1.466650183E0
1.729353791E2,-3.393995464E-1,7.267474532E-1,6.472746730E-1,1.030688321E0
1.731357311E2,-1.569224149E-2,-7.065590620E-1,-6.258773804E-2,7.094992456E-1
1.733360831E2,1.537576616E-1,-1.688105106E0,-4.206412137E-1,1.746504881E0
1.735364351E2,6.384203583E-2,5.483013988E-1,-5.716224909E-1,7.946461486E-1
1.737367860E2,2.003210038E-2,-8.571560681E-2,-5.204074979E-1,5.277995966E-1
1.739371380E2,-2.390188277E-1,1.373296883E-2,9.820806235E-2,2.587729080E-1
1.741374900E2,5.978558660E-1,1.009500384E0,1.262652397E0,1.723604867E0
1.743378420E2,3.491098881E-1,9.782902151E-2,8.783927560E-1,9.502747314E-1
1.745381930E2,-2.514174283E-1,4.970109090E-2,-4.756981134E-1,5.403421294E-1
1.747385448E2,-3.814255297E-1,-7.123607397E-1,-5.465549827E-1,9.755334988E-1
1.749388958E2,-1.115827799E0,-2.322166115E-1,-7.060071826E-1,1.340687276E0
1.751392478E2,-1.189972013E-1,1.417334974E-1,-7.719707489E-2,2.005195915E-1
1.753395998E2,-1.577170044E-1,1.717174947E-1,3.772844374E-1,4.435144848E-1
1.755399508E2,-6.196779013E-2,1.024568900E-1,8.548662812E-2,1.471237062E-1
1.757403027E2,1.206364155E0,2.696753442E-1,-2.832655609E-1,1.268179263E0
1.759406537E2,3.409494460E-1,-4.434338808E-1,-4.102061987E-1,6.936492318E-1
1.761410057E2,-9.940464050E-2,7.103505731E-2,-1.823496073E-1,2.194963353E-1
1.763413567E2,9.192448854E-1,-8.695210814E-1,7.157109380E-1,1.453726321E0
1.765417087E2,-1.372267902E-1,1.831506342E-1,2.553329170E-1,3.428851779E-1
1.767420604E2,-2.944068611E-1,6.761437058E-1,-5.381247401E-1,9.129205588E-1
1.769424114E2,2.862390876E-1,-4.426173866E-1,2.076942921E-1,5.665508672E-1
1.771427634E2,-7.195721269E-1,4.356715083E-1,3.408785909E-2,8.418762920E-1
1.773431144E2,-3.368723392E-1,-3.212690651E-1,-6.087672710E-1,7.663513394E-1
1.775434654E2,-6.854838133E-1,-5.382790789E-2,-5.960504413E-1,9.099789176E-1
1.777438164E2,2.937301099E-1,-1.619569063E-1,-2.705591321E-1,4.309404378E-1
1.779441684E2,2.530171573E-1,3.091230690E-1,-5.689916611E-1,6.952167030E-1
1.781445194E2,3.855063915E-1,-8.227216452E-2,4.562755525E-1,6.029687113E-1
1.783448704E2,5.315960944E-2,1.504187565E-2,3.563220501E-1,3.605795411E-1
1.785452214E2,5.263518095E-1,-6.970604509E-2,6.815222502E-1,8.639315584E-1
1.787455717E2,-3.823551238E-1,8.488250524E-2,1.223404706E-1,4.103262983E-1
1.789459227E2,7.630925626E-2,-5.807647705E-1,-4.771458805E-1,7.554991810E-1
1.791462747E2,4.534031749E-1,2.160946839E-2,-2.982640266E-1,5.431416369E-1
1.793466257E2,-1.142929435E0,1.853252389E-2,-8.058526516E-1,1.398581297E0
1.795469767E2,2.750530243E-1,3.426775038E-1,2.905752659E-1,5.267978957E-1
1.797473285E2,1.236169040E-1,1.574712098E-1,1.305395216E-1,2.389955806E-1
1.799476795E2,5.557641387E-1,-2.944695950E-1,-7.164473832E-2,6.330237663E-1
1.801480305E2,1.143569946E0,3.474166989E-1,-3.981325626E-1,1.259746055E0
1.803483805E2,-3.133314550E-1,-3.267954886E-1,-4.560534060E-1,6.426169942E-1
1.805487315E2,7.471575141E-1,-3.243331984E-2,2.832694054E-1,7.997110898E-1
1.807490826E2,1.806477755E-1,-4.979127273E-2,8.783481717E-1,8.981137458E-1
1.809494336E2,-2.276103050E-1,-3.025233448E-1,3.251185715E-1,4.990279657E-1
1.811497846E2,8.492907882E-2,3.295848668E-1,-1.301168650E-1,3.643755362E-1
1.813501356E2,-5.930570364E-1,-4.937213659E-1,-6.122976542E-1,9.850816478E-1
1.815504866E2,-1.283536792E0,3.038512170E-2,-5.314448476E-1,1.389540779E0
1.817508367E2,4.505604208E-1,3.106062114E-1,4.846256375E-1,7.309876332E-1
1.819511877E2,-2.261812240E-1,6.872259825E-2,4.363156259E-1,4.962379137E-1
1.821515387E2,-3.574869931E-1,4.806141555E-1,-3.690921962E-1,7.035737104E-1
1.823518887E2,1.171546340E0,-1.819077134E-2,-2.812563479E-1,1.204971728E0
1.825522397E2,3.143735528E-1,-1.070216820E-1,-2.591147088E-3,3.321010165E-1
1.827525907E2,2.587270439E-1,-1.505946070E-1,5.581834912E-1,6.333934234E-1
1.829529407E2,6.954459548E-1,1.173936501E-1,7.322332859E-1,1.016657233E0
1.831532918E2,-3.444314003E-1,2.368441373E-1,3.443840742E-1,5.415981217E-1
1.833536427E2,-1.811749786E-1,-4.709819257E-1,-5.287809372E-1,7.309292899E-1
1.835539928E2,-6.408645511E-1,-2.957435139E-2,-1.095372796E0,1.269418598E0
1.837543435E2,-8.922245502E-1,-8.312270790E-2,-3.894858956E-1,9.770738434E-1
1.839546935E2,-2.823441029E-1,-1.069937646E-1,-1.527846754E-1,3.383918071E-1
1.841550445E2,3.538711667E-1,-3.899641335E-1,2.771280706E-1,5.950603293E-1
1.843553945E2,-4.113932252E-1,-4.476897418E-2,4.259599745E-2,4.160084924E-1
1.845557445E2,1.921262622E0,-1.588872313E0,-5.973690152E-1,2.563711183E0
1.847560956E2,-2.980564833E-1,3.314732611E-1,-2.732908726E-1,5.228767456E-1
1.849564456E2,3.267284930E-1,1.791578159E-2,1.582248509E-1,3.634660738E-1
1.851567956E2,-3.811152279E-2,1.735170484E-1,1.148731709E0,1.162387712E0
1.853571466E2,-1.506221890E-1,8.106926829E-2,2.352735400E-1,2.908829812E-1
1.855574966E2,-2.097272575E-1,-5.424436331E-1,-2.729483545E-1,6.424417653E-1
1.857578462E2,-4.538064897E-1,-1.111530215E-1,-8.085551262E-1,9.338397702E-1
1.859581962E2,-3.764002025E-1,-1.713580452E-2,-1.583608389E-1,4.087161650E-1
1.861585472E2,8.494793773E-1,1.684035659E-1,2.367489189E-1,8.977889641E-1
1.863588972E2,-1.327490211E-1,5.840428472E-1,4.576775730E-1,7.537885053E-1
1.865592472E2,2.907999158E-1,-1.695514321E-1,1.369554847E-1,3.634131037E-1
1.867595968E2,3.216745099E-4,-5.966607928E-1,-3.250201344E-1,6.794426341E-1
1.869599468E2,-2.316727340E-1,1.714828759E-1,-1.483739913E-1,3.241812359E-1
1.871602968E2,-2.671229541E-1,5.781061649E-1,4.789162576E-1,7.968200502E-1
1.873606468E2,2.246710360E-1,-6.578479409E-1,4.765996039E-1,8.428452825E-1
1.875609968E2,-2.707452178E-1,1.656450033E-1,-1.098785400E-1,3.358787484E-1
1.877613467E2,2.214567065E-1,-1.638182551E-1,-6.639574170E-1,7.188316529E-1
1.879616967E2,-1.041146368E-1,-5.603278279E-1,-5.890672803E-1,8.196385747E-1
1.881620467E2,3.364918530E-1,-2.252237648E-1,4.836939275E-2,4.077892955E-1
1.883623967E2,7.360327244E-1,4.388226271E-1,7.417721152E-1,1.133373434E0
1.885627467E2,1.004731581E-1,1.069222838E-1,6.514331698E-1,6.677517540E-1
1.887630976E2,-1.039841026E-1,2.984339297E-1,-2.510977387E-1,4.036404073E-1
1.889634476E2,4.083150923E-1,-4.511325955E-1,-6.078318954E-1,8.600589784E-1
1.891637976E2,-9.086656570E-1,6.291960925E-2,-6.096519232E-1,1.096041797E0
1.893641476E2,2.679297328E-1,6.211791039E-1,4.065384567E-1,7.892549256E-1
1.895644976E2,7.375634462E-2,-5.796982646E-1,3.626037538E-1,6.877292771E-1
1.897648460E2,8.282974362E-2,1.361066699E-1,8.254864812E-2,1.794437832E-1
1.899651960E2,6.618117094E-1,-4.421145022E-1,-1.020406723E0,1.294098084E0
1.901655460E2,-6.039091945E-2,-2.901929915E-1,-8.917602897E-1,9.397315839E-1
1.903658960E2,-1.913643209E-3,-1.375407279E-1,2.547843158E-1,2.895447486E-1
1.905662450E2,3.488664329E-1,6.579225659E-1,1.439560771E0,1.620772996E0
1.907665953E2,3.831738979E-2,4.075768590E-1,4.567044079E-1,6.133237600E-1
1.909669453E2,2.650633752E-1,3.601257205E-1,-2.487696409E-1,5.116986044E-1
1.911672943E2,1.206947397E-2,-3.305334151E-1,-3.816520572E-1,5.050309925E-1
1.913676443E2,-3.487159610E-1,-1.658548862E-1,-5.313143134E-1,6.568147108E-1
1.915679943E2,1.685161144E-1,-6.516911387E-1,-4.909261167E-1,8.331311260E-1
1.917683432E2,9.838928282E-2,2.430866510E-1,7.675724626E-1,8.111344254E-1
1.919686932E2,-2.359756082E-1,-4.250806868E-1,2.756629512E-2,4.869681495E-1
1.921690422E2,8.936992884E-1,5.974222720E-2,6.285471916E-1,1.094229923E0
1.923693922E2,-1.443890214E0,5.739674568E-1,-4.600904286E-1,1.620475484E0
1.925697412E2,2.817670405E-1,-7.199633867E-2,7.142381668E-1,7.711759182E-1
1.927700911E2,-1.959690154E-1,-3.593510687E-1,5.565600991E-1,6.908662602E-1
1.929704401E2,-5.043178201E-1,-3.087810986E-2,-1.201342121E-1,5.193478124E-1
1.931707901E2,-3.587766588E-1,-4.896622896E-1,-1.144437313E0,1.295463860E0
1.933711391E2,-3.422644436E-1,1.603090167E-1,-8.990832567E-1,9.752920756E-1
1.935714881E2,-6.749463081E-2,-2.591085732E-1,6.007814780E-2,2.744123936E-1
1.937718386E2,9.537946582E-1,-9.333895445E-1,-1.190340668E-1,1.339816928E0
1.939721876E2,-4.315791130E-1,4.853476286E-1,2.811159790E-1,7.077068920E-1
1.941725366E2,2.325066477E-1,-3.637661934E-1,4.885736108E-1,6.519887712E-1
1.943728866E2,1.125472546E0,-4.178414345E-1,4.855119884E-1,1.294991045E0
1.945732356E2,-6.606988907E-1,-3.619864210E-2,-9.910895824E-1,1.191676100E0
1.947735841E2,8.235945106E-1,3.710296154E-1,1.022790670E0,1.364577462E0
1.949739331E2,-4.828551412E-1,-4.247797728E-1,4.916490018E-1,8.095095328E-1
1.951742831E2,-2.348246723E-1,6.809193641E-2,3.257860243E-2,2.466586789E-1
1.953746321E2,1.024629250E-1,-6.488199830E-1,-1.413025141E0,1.558238130E0
1.955749811E2,-2.552265823E-1,4.019627571E-1,-1.884251833E-1,5.120729598E-1
1.957753303E2,1.479028463E-1,-6.639132500E-1,-3.662203625E-2,6.811734206E-1
1.959756793E2,8.582754731E-1,-8.254606128E-1,5.239356309E-3,1.190818820E0
1.961760283E2,-2.498166263E-1,1.061487794E0,5.836342573E-1,1.236848265E0
1.963763773E2,5.259218216E-1,2.524687946E-1,-2.877986431E-1,6.505092725E-1
1.965767263E2,3.905498087E-1,-6.307343245E-1,9.792058170E-2,7.482936466E-1
1.967770755E2,-6.131891012E-1,2.420110404E-1,-2.392423153E-1,7.012895999E-1
1.969774245E2,-3.704714775E-1,-2.094919235E-1,2.695783377E-1,5.037940668E-1
1.971777735E2,-3.447723091E-1,-3.596172035E-1,7.453454286E-2,5.037339339E-1
1.973781225E2,-2.020227164E-2,1.773112565E-1,-2.618846484E-3,1.784776508E-1
1.975784715E2,2.447435558E-1,4.220656157E-1,-9.804798961E-1,1.095161914E0
1.977788204E2,-1.127905846E-1,-9.170286357E-2,-4.693354368E-1,4.913317448E-1
1.979791694E2,-1.649162918E-1,-7.853764296E-1,-6.233394146E-1,1.016152324E0
1.981795184E2,9.116189480E-1,6.286587715E-1,2.022998810E0,2.306249150E0
1.983798664E2,9.323588759E-2,4.939028919E-1,6.856809855E-1,8.501714010E-1
1.985802154E2,-4.031313956E-1,-1.452584505E0,-8.426379561E-1,1.727007641E0
1.987805646E2,-1.614827961E-1,-1.961264387E-2,-8.160824776E-1,8.321369836E-1
1.989809136E2,-8.191828132E-1,-1.120834112E0,-5.364175439E-1,1.488312255E0
1.991812616E2,1.566143990E0,-6.709620357E-1,4.520855471E-2,1.704418042E0
1.993816106E2,1.780128330E-1,5.746973157E-1,4.671561122E-1,7.617088726E-1
1.995819596E2,-1.840701401E-1,-4.216026068E-1,-8.077146858E-2,4.670702353E-1
1.997823072E2,4.979090989E-1,4.605349526E-2,1.736866385E-1,5.293405742E-1
1.999826563E2,-5.328624845E-1,-1.735760272E-1,-9.440247416E-1,1.097840506E0
2.001830042E2,-1.875116676E-1,6.111438870E-1,4.542258978E-1,7.842057398E-1
2.003833532E2,-4.148823619E-1,2.936956882E-1,6.563454270E-1,8.301649541E-1
2.005837012E2,-3.663852215E-1,5.940471962E-2,2.889919281E-1,4.704076804E-1
2.007840507E2,-5.786858201E-1,-5.619674921E-1,-1.114006281E0,1.375388939E0
2.009843987E2,-5.801174641E-1,5.583808571E-2,-1.074828029E0,1.222664899E0
2.011847477E2,1.038307250E-1,-1.171156406E0,1.210729312E-2,1.175812372E0
2.013850957E2,-5.964767560E-2,-5.031595826E-1,-4.979783595E-1,7.104293471E-1
2.015854447E2,1.801320165E-1,6.665197611E-1,5.152135491E-1,8.614761381E-1
2.017857921E2,-3.927018121E-2,-6.099210382E-1,-1.609614044E-1,6.320240451E-1
2.019861401E2,-1.242432557E-2,-1.535090967E-3,-8.115445822E-2,8.211434990E-2
2.021864891E2,-6.046393514E-1,-3.826151490E-1,-4.707224965E-1,8.564827880E-1
2.023868371E2,5.551573634E-1,3.821918070E-1,8.559753895E-1,1.089478840E0
2.025871851E2,3.878854588E-2,1.423729211E-1,8.263857961E-1,8.394570173E-1
2.027875338E2,-3.447301984E-1,-1.323049366E-1,2.590352893E-1,4.510463247E-1
2.029878818E2,-5.826574564E-1,-4.006574154E-1,-1.000218153E0,1.224929561E0
2.031882298E2,-2.601256371E-1,1.539525688E-1,-5.607749224E-1,6.370520026E-1
2.033885778E2,-5.307899714E-1,-7.251349688E-1,-3.873359859E-1,9.785641944E-1
2.035889268E2,1.100706339E0,3.523517847E-1,5.499675274E-1,1.279910351E0
2.037892750E2,7.624452114E-1,7.100139260E-1,1.235531211E0,1.616162074E0
2.039896230E2,6.781218052E-1,-4.483146667E-1,-5.158234239E-1,9.627611478E-1
2.041899710E2,5.266652703E-1,-6.718089581E-1,4.689027667E-1,9.739473229E-1
2.043903190E2,-1.331306100E0,-1.553741693E-1,-6.248223782E-1,1.478823880E0
2.045906670E2,2.927208841E-1,8.251972198E-1,6.041761637E-1,1.063797351E0
2.047910150E2,-3.126069531E-2,-1.460441761E-2,8.540844917E-1,8.547811644E-1
2.049913630E2,-7.645598054E-1,5.264638662E-1,1.119486168E-1,9.350125086E-1
2.051917110E2,-2.490804940E-1,-2.084565014E-1,-1.452518702E0,1.488390333E0
2.053920590E2,1.173818484E-1,2.303480916E-2,-3.661495447E-1,3.851942236E-1
2.055924070E2,-1.052079499E-1,4.935202375E-2,4.475401640E-1,4.623813722E-1
2.057927548E2,1.153953433E0,8.408741653E-2,5.570187569E-1,1.284114136E0
2.059931028E2,5.371967554E-1,6.115213037E-1,5.182846785E-1,9.649651117E-1
2.061934508E2,-6.621098518E-1,-6.049707159E-2,-5.520086288E-1,8.641544294E-1
2.063937988E2,1.295193911E0,-3.388427496E-1,7.896640897E-2,1.341110498E0
2.065941468E2,-1.720189214E0,1.368258614E-2,-5.385897756E-1,1.802586223E0
2.067944952E2,-1.562116891E-1,8.880669475E-1,5.508676171E-1,1.056655160E0
2.069948422E2,-1.394691169E-1,-1.754403114E-1,5.243883729E-1,5.702754625E-1
2.071951902E2,-9.652007222E-1,4.440774024E-1,6.321446300E-1,1.236294466E0
2.073955382E2,1.063469410E0,-5.048733354E-1,-1.148634672E0,1.644757089E0
2.075958862E2,-3.342950642E-1,-1.438738704E-1,-6.420727372E-1,7.380449041E-1
2.077962331E2,-9.300500154E-1,7.462838292E-1,-3.400215507E-1,1.239978726E0
2.079965811E2,9.828653336E-1,1.881173402E-1,1.218586802E0,1.576821548E0
2.081969291E2,1.819341481E-1,3.634986877E-1,7.245301604E-1,8.307678879E-1
2.083972761E2,-5.229629874E-1,2.907536328E-1,-3.532713354E-1,6.948586889E-1
2.085976241E2,-1.613360643E-1,-2.603704929E-1,-1.028063297E0,1.072723759E0
2.087979720E2,-7.769910097E-1,4.557791054E-1,-3.369666636E-1,9.617672039E-1
2.089983190E2,-7.906918526E-1,3.828190034E-3,-2.112665325E-1,8.184386407E-1
2.091986670E2,-3.953980207E-1,-5.211809650E-2,3.654042482E-1,5.409030924E-1
2.093990140E2,-5.491129160E-1,6.113431454E-1,2.514033616E-1,8.593422404E-1
2.095993620E2,9.975836277E-1,-1.510772109E-1,-9.348958731E-1,1.375509982E0
2.097997087E2,-5.013929605E-1,-1.479604691E-1,-4.756534696E-1,7.067767854E-1
2.100000567E2,5.402339697E-1,3.770426810E-1,5.089272857E-1,8.324787729E-1
2.102004037E2,1.011983871E0,9.536862373E-2,1.498900652E0,1.811052096E0
2.104007517E2,-4.873788729E-2,7.134435773E-1,7.659053206E-1,1.047849264E0
2.106010987E2,7.280554175E-1,4.701909423E-1,2.514560521E-1,9.024269274E-1
2.108014462E2,5.087054372E-1,-7.354509234E-1,1.861308515E-1,9.134078916E-1
2.110017942E2,-1.261491418E0,6.691484153E-2,-9.896709919E-1,1.604770035E0
2.112021412E2,-1.345832795E-1,8.802632093E-1,3.130440712E-1,9.439134321E-1
2.114024882E2,-4.798261225E-1,-4.407817423E-1,-1.119759530E-1,6.611053367E-1
2.116028362E2,-5.102645159E-1,-1.717239385E-3,-4.860925302E-2,5.125774913E-1
2.118031837E2,-5.461879969E-1,-9.596220255E-1,-9.566766024E-1,1.460967447E0
2.120035307E2,-2.739165723E-1,-3.450824022E-1,-6.701007485E-1,8.019645666E-1
2.122038777E2,5.728750825E-1,-9.869705141E-2,3.038497269E-1,6.559356864E-1
2.124042247E2,1.323453307E0,-3.538616002E-2,9.696541429E-1,1.641039303E0
2.126045727E2,1.503869176E0,8.175389171E-1,-6.622631103E-2,1.713002716E0
2.128049195E2,-1.245259866E-2,5.690937042E-1,-9.365370125E-2,5.768827673E-1
2.130052665E2,8.726633787E-1,6.434958577E-1,1.167700052E0,1.593471589E0
2.132056135E2,-1.295070767E0,8.888042718E-2,-1.124572396E0,1.717489766E0
2.134059605E2,1.814387739E-1,1.530705690E-1,4.766191244E-1,5.324625973E-1
2.136063075E2,3.306644559E-1,-4.995650798E-2,5.375703573E-1,6.331007220E-1
2.138066538E2,-7.283739448E-1,-3.592597544E-1,-1.178964898E-1,8.206678724E-1
2.140070008E2,-2.019407153E-1,-4.114173949E-1,-1.356140375E0,1.431489100E0
2.142073478E2,-9.392868727E-2,-1.272393018E-1,-4.913371801E-1,5.161634071E-1
2.144076948E2,1.439132728E-2,-6.640455723E-1,-1.337808967E-1,6.775403757E-1
2.146080418E2,1.265737891E0,3.365371227E-1,1.009891033E0,1.653852939E0
2.148083889E2,1.227296367E-1,1.013963699E0,9.539573789E-1,1.397576341E0
2.150087349E2,3.599927723E-1,-1.758006573E0,-6.415565014E-1,1.905722081E0
2.152090819E2,9.827244878E-1,-6.967191100E-1,6.289565563E-2,1.206283881E0
2.154094289E2,-1.083565831E0,-2.543560266E-1,-8.910478354E-1,1.425755289E0
2.156097759E2,-3.084969223E-1,5.897108316E-1,5.301227570E-1,8.508580102E-1
2.158101230E2,-3.358835578E-1,-8.719654679E-1,1.608789414E-1,9.481685375E-1
2.160104690E2,-5.733739734E-1,6.097279117E-2,4.472742081E-1,7.297462654E-1
2.162108160E2,-4.091302752E-1,-1.338282466E0,-1.822726607E0,2.297981685E0
2.164111630E2,-2.147546858E-1,5.190031528E-1,-6.981067061E-1,8.960116187E-1
2.166115090E2,2.977120280E-1,-3.108088672E-1,1.216582954E-1,4.472531100E-1
2.168118563E2,1.202396512E0,-2.715184726E-2,6.424775124E-1,1.363551227E0
2.170122033E2,3.102998435E-1,1.090283990E0,1.181388140E0,1.637279178E0
2.172125493E2,-1.323015809E0,-6.887226701E-1,-1.414918065E0,2.055894666E0
2.174128963E2,7.189574838E-1,5.470124483E-1,1.645982862E-1,9.182674327E-1
2.176132433E2,-8.190130591E-1,-3.708048537E-2,-1.243144795E-1,8.292233977E-1
2.178135886E2,-2.173171788E-1,5.091956258E-1,6.083821058E-1,8.225787064E-1
2.180139356E2,1.405688375E-1,1.903232187E-3,8.531063199E-1,8.646118282E-1
2.182142816E2,-4.051701427E-1,9.328064322E-1,8.015464544E-1,1.294900538E0
2.184146286E2,-5.119366944E-2,-9.242835641E-1,-5.246728659E-1,1.064050053E0
2.186149746E2,2.937739193E-1,-2.399856225E-2,-1.720058471E-1,3.412697732E-1
2.188153212E2,-9.308649302E-1,-3.704633117E-1,-7.830745578E-1,1.271596770E0
2.190156682E2,2.346761703E0,-2.953082025E-1,9.843056202E-1,2.561904561E0
2.192160142E2,1.883283108E-1,3.053376675E-1,3.088651597E-1,4.733881396E-1
2.194163612E2,6.061193347E-1,-1.470694900E0,-2.422478199E-1,1.609039509E0
2.196167072E2,3.541821241E-1,-1.956098527E-1,-3.511559367E-1,5.357412467E-1
2.198170531E2,-8.514585495E-1,1.666464284E-2,-4.170862138E-1,9.482722613E-1
2.200174001E2,-1.361795366E-1,1.741425246E-1,-6.263266318E-3,2.211554059E-1
2.202177461E2,1.075027511E-1,1.979714781E-1,4.003132880E-1,4.593476637E-1
2.204180921E2,-1.550929844E-1,-5.669941902E-1,1.531743109E-1,6.074525620E-1
2.206184381E2,2.689297199E-1,6.169155836E-1,-2.557253242E-1,7.199329642E-1
2.208187847E2,2.989123948E-2,-3.493002355E-1,-5.890327096E-1,6.854660267E-1
2.210191307E2,4.244154990E-1,9.676404297E-2,3.325051665E-1,5.477695515E-1
2.212194778E2,5.722678825E-2,-9.688763618E-1,8.582493663E-1,1.295603444E0
2.214198237E2,-4.836501479E-1,-5.347527266E-1,6.640584022E-2,7.240771228E-1
2.216201697E2,-4.967906773E-1,-2.957956791E-1,-8.460165858E-1,1.024714655E0
2.218205155E2,-3.727468550E-1,4.245804846E-1,-8.447675705E-1,1.016287879E0
2.220208615E2,3.114598095E-1,-3.518343270E-1,3.210426271E-1,5.690896019E-1
2.222212075E2,1.426105380E0,-2.750068009E-1,3.361158669E-1,1.490764626E0
2.224215535E2,1.749595255E-1,4.248269200E-1,7.438287735E-1,8.742825583E-1
2.226218995E2,-2.616314590E-1,-5.115197897E-1,-7.694815099E-2,5.796762316E-1
2.228222453E2,4.513455033E-1,3.453059494E-1,-7.073178887E-2,5.726708898E-1
2.230225913E2,-2.341241390E-1,-1.432272315E0,-6.765700579E-1,1.601238627E0
2.232229373E2,3.377673328E-1,8.450110555E-1,8.414357901E-1,1.239413024E0
2.234232833E2,-6.726104766E-2,4.145560786E-2,7.960267663E-1,7.999382655E-1
2.236236283E2,-7.569074631E-2,3.927849829E-1,-3.738195002E-1,5.474944298E-1
2.238239745E2,5.341362953E-2,-1.420221448E0,-3.831256628E-1,1.471960343E0
2.240243205E2,2.400605381E-1,-7.421742380E-2,-6.083337218E-2,2.585304375E-1
2.242246665E2,-3.790923059E-1,-6.260909438E-1,-1.243012920E-1,7.423958900E-1
2.244250125E2,1.214905858E0,1.883863956E-1,3.834306300E-1,1.287829463E0
2.246253575E2,2.531277239E-1,7.775905132E-1,7.862063050E-1,1.134390147E0
2.248257032E2,-1.327596754E-1,-2.018733501E0,-5.378401279E-2,2.023808983E0
2.250260492E2,5.108668208E-1,2.814815044E-1,6.880689412E-2,5.873254078E-1
2.252263942E2,-8.941115737E-1,-3.267412484E-1,-1.568755209E-1,9.647825033E-1
2.254267402E2,5.457958207E-2,4.520600736E-1,6.355810761E-1,7.818571131E-1
2.256270862E2,-2.930885926E-2,-1.479797810E-1,3.333421052E-1,3.658879390E-1
2.258274318E2,-4.368416071E-1,-1.341480613E-1,-1.421732754E-1,4.785807479E-1
2.260277778E2,-3.479905725E-1,-2.948055267E-1,-9.271847010E-1,1.033285637E0
2.262281228E2,-3.529181480E-1,1.017850786E-1,-6.026868820E-1,7.057923910E-1
2.264284688E2,-1.937219948E-1,-2.348166853E-1,-1.371700168E-1,3.338902521E-1
2.266288138E2,5.095171928E-1,-6.399943680E-2,5.819644332E-1,7.761354902E-1
2.268291591E2,9.300962090E-2,4.552714825E-1,6.198025942E-1,7.746471249E-1
2.270295041E2,2.608154118E-1,-7.086696625E-1,-2.734314501E-1,8.031202447E-1
2.272298491E2,7.705341578E-1,-5.569669008E-1,2.802194655E-1,9.911901764E-1
2.274301951E2,-4.705981612E-1,-1.747259311E-2,-3.629387319E-1,5.945523055E-1
2.276305401E2,4.304340482E-1,5.463446975E-1,9.547910094E-1,1.181267061E0
2.278308866E2,-6.706836820E-1,-6.343500018E-1,9.798723459E-1,1.346241561E0
2.280312316E2,-3.688929081E-1,2.270860225E-2,4.640872777E-1,5.932745229E-1
2.282315766E2,-2.565716207E-1,4.946827292E-1,-8.073129505E-2,5.630786279E-1
2.284319216E2,-1.501456648E-1,3.282500207E-1,-1.047580540E-1,3.758537570E-1
2.286322666E2,-3.846527934E-1,-1.218098253E-1,1.425183117E-1,4.279098903E-1
2.288326128E2,-3.486700356E-1,5.274534225E-1,6.471212506E-1,9.047341155E-1
2.290329577E2,1.787575632E-1,-2.572202384E-1,9.760964513E-1,1.025124773E0
2.292333027E2,-3.696408495E-2,1.109743416E-1,4.000166655E-1,4.167672980E-1
2.294336477E2,1.739093363E-1,5.333278775E-1,-4.298885167E-1,7.067440972E-1
2.296339927E2,-8.945864439E-1,-3.832182661E-2,-9.867491126E-1,1.332451605E0
2.298343367E2,-7.220828533E-2,-4.051834345E-2,1.488872319E-1,1.703619102E-1
2.300346817E2,7.410414219E-1,5.386137590E-2,3.308157325E-1,8.133157355E-1
2.302350267E2,2.104966715E-2,2.307809442E-1,2.612505257E-1,3.492202312E-1
2.304353717E2,-1.013465375E-1,-1.967664361E-1,-1.124828607E-1,2.482751397E-1
2.306357167E2,7.496821284E-1,2.873280346E-1,-2.700477540E-1,8.470575439E-1
2.308360624E2,-5.093142986E-1,-1.161121354E-1,-7.921878695E-1,9.489176484E-1
2.310364074E2,1.974625140E-1,2.628111541E-1,5.065356493E-1,6.038538823E-1
2.312367514E2,1.006704345E-1,-9.614985436E-2,3.646914065E-1,3.903577242E-1
2.314370964E2,-2.912179828E-1,-1.025339812E-1,3.446329832E-1,4.627018737E-1
2.316374414E2,4.768962562E-1,-2.869586051E-1,-7.285008430E-1,9.167817398E-1
2.318377867E2,-4.624269605E-1,-9.203507006E-2,-8.071777821E-1,9.347968334E-1
2.320381307E2,-4.287191331E-1,-1.204456836E-1,-2.070440501E-1,4.910952011E-1
2.322384757E2,4.284458980E-2,1.487484872E-1,-1.455495209E-1,2.124769031E-1
2.324388207E2,4.432378337E-2,2.650106847E-1,5.417902470E-1,6.047577470E-1
2.326391647E2,-1.853907406E-1,-3.170977905E-2,-2.625419497E-1,3.229605428E-1
2.328395095E2,2.845343947E-1,-6.969079971E-1,-7.918305397E-1,1.092536581E0
2.330398535E2,-3.127996325E-1,3.118721843E-1,-1.446147859E-1,4.647809223E-1
2.332401985E2,5.541279912E-1,8.078879118E-2,5.023836493E-1,7.523124288E-1
2.334405425E2,1.417092919E0,-3.748391867E-1,2.139170021E-1,1.481356555E0
2.336408875E2,4.199356437E-1,6.029006839E-2,3.244666755E-1,5.340968645E-1
2.338412316E2,-1.468175799E-1,-2.448040992E-1,-3.575859070E-1,4.575501389E-1
2.340415766E2,3.836261034E-1,7.272943258E-1,-2.926796302E-2,8.227895461E-1
2.342419206E2,-9.025890827E-1,1.672754139E-1,-1.317906082E-1,9.273709510E-1
2.344422656E2,1.830885261E-1,-2.115496099E-1,2.768842280E-1,3.936235785E-1
2.346426096E2,-1.062510908E-1,3.472749889E-1,7.877879739E-1,8.674670622E-1
2.348429532E2,-3.463855684E-1,3.884309530E-1,2.137734294E-1,5.626372245E-1
2.350432972E2,-2.127564847E-1,-9.527755529E-2,-8.424589038E-1,8.741167765E-1
2.352436422E2,-4.175551832E-1,4.230612516E-1,-8.367559910E-1,1.026398432E0
2.354439862E2,-3.924639821E-1,1.017908752E-1,2.342366278E-1,4.682479656E-1
2.356443302E2,2.748502493E-1,2.709475458E-1,-5.623677373E-2,3.900228286E-1
2.358446740E2,-3.844814301E-1,5.457972288E-1,4.624178112E-1,8.121273405E-1
2.360450180E2,9.396552294E-2,-3.640400767E-1,-3.117082417E-1,4.883817410E-1
2.362453620E2,6.594949961E-1,5.503766537E-1,-1.564925611E-1,8.731197125E-1
2.364457060E2,-4.173392430E-2,-2.456862330E-1,3.183341026E-2,2.512305944E-1
2.366460500E2,1.751413196E-1,-1.238064170E-1,3.232681751E-1,3.879495119E-1
2.368463946E2,1.123964414E-1,5.747868493E-2,1.068856597E0,1.076285828E0
2.370467386E2,1.737070084E-1,3.531830013E-2,3.422551751E-1,3.854349646E-1
2.372470826E2,-5.598866940E-1,-4.163273051E-2,-4.129280746E-1,6.969332745E-1
2.374474266E2,8.251249045E-2,-1.537272781E-1,-7.040728331E-1,7.253681420E-1
2.376477706E2,-9.631600976E-1,-1.270803362E-1,-3.065433502E-1,1.018722539E0
2.378481147E2,1.655136943E-1,-9.678031504E-2,-6.970106959E-1,7.229004929E-1
2.380484587E2,2.895309031E-1,2.442794144E-1,4.961517751E-1,6.242332578E-1
2.382488017E2,-6.640577316E-2,9.486947209E-2,1.285457909E-1,1.730143457E-1
2.384491457E2,1.620375037E0,2.210927159E-1,2.806072235E-1,1.659288300E0
2.386494897E2,-1.395248435E-2,-8.836761862E-2,-7.013801485E-2,1.136787094E-1
2.388498328E2,-4.992599040E-2,2.867240086E-2,3.057642579E-1,3.111374174E-1
2.390501758E2,-2.331467569E-1,7.759534568E-2,2.904393375E-1,3.804385058E-1
2.392505198E2,-1.318236142E-1,8.102127910E-2,4.969320595E-1,5.204645855E-1
2.394508628E2,3.002265990E-1,-8.627892286E-2,1.469825655E-1,3.452302678E-1
2.396512068E2,-7.360397838E-3,1.246162578E-1,-2.266999632E-1,2.587977212E-1
2.398515506E2,-7.893196940E-1,-1.505045742E-1,-4.407049343E-2,8.047480442E-1
2.400518946E2,-4.693431556E-1,7.919164747E-2,-2.397691905E-1,5.329573899E-1
2.402522376E2,-2.154674940E-2,4.806760550E-1,2.996956408E-1,5.668608377E-1
2.404525816E2,3.835886344E-2,-3.081655130E-2,-9.505753964E-2,1.070373677E-1
2.406529246E2,3.393854797E-1,6.624671817E-2,-8.979089856E-1,9.621910818E-1
2.408532680E2,-2.232170403E-1,-2.172897756E-1,-6.856423020E-1,7.530910038E-1
2.410536110E2,-1.062492058E-1,1.287826151E-1,4.556586966E-2,1.730609839E-1
2.412539540E2,-1.703848541E-1,-3.968937322E-2,2.714868784E-1,3.229727078E-1
2.414542970E2,3.236531019E-1,7.520294189E-1,7.364665270E-1,1.101218653E0
2.416546410E2,-1.820927709E-1,-2.230845951E-2,-4.109753072E-1,4.500623821E-1
2.418549842E2,2.725429274E-2,-4.507063031E-1,-6.212665439E-1,7.680176343E-1
2.420553272E2,-7.491065860E-1,-3.116040826E-1,-1.622286290E-1,8.273910258E-1
2.422556702E2,-3.369438276E-2,-2.720297575E-1,1.590689868E-1,3.169202470E-1
2.424560132E2,-3.708059341E-2,3.360455334E-1,4.962060153E-1,6.004348263E-1
2.426563562E2,-6.788991690E-1,3.377162218E-1,-6.112892032E-1,9.739768057E-1
2.428566992E2,2.155184150E-1,-4.728188217E-1,-9.379137158E-1,1.072235032E0
2.430570422E2,-5.003033876E-1,7.357595116E-2,2.552213073E-1,5.664404787E-1
2.432573852E2,-2.401680946E-1,1.258938164E-1,3.132089972E-1,4.142823224E-1
2.434577282E2,5.875323415E-1,-7.383469492E-2,-5.456959009E-1,8.052514084E-1
2.436580712E2,-7.841275632E-2,2.106909901E-1,2.151705623E-1,3.111874428E-1
2.438584146E2,-4.014173746E-1,-5.799195170E-1,-2.236731201E-1,7.399136568E-1
2.440587576E2,7.981442213E-1,4.313677549E-1,-8.903664947E-1,1.271166721E0
2.442591006E2,-3.085242060E-4,-2.863192856E-1,-6.676181406E-2,2.939999461E-1
2.444594426E2,-7.227766514E-1,-3.373656869E-1,1.917887777E-1,8.203685938E-1
2.446597856E2,5.061646104E-1,1.957930326E-1,1.282231569E0,1.392356033E0
2.448601280E2,-5.788382292E-1,1.138706207E0,8.934925795E-1,1.558856796E0
2.450604700E2,4.784307629E-2,-4.795314968E-1,-4.872589707E-1,6.853179707E-1
2.452608130E2,5.124041066E-2,2.860969007E-1,1.043561250E-1,3.088158304E-1
2.454611560E2,-5.703381300E-1,-4.062983096E-1,3.159895539E-1,7.682534068E-1
2.456614980E2,2.583182650E-3,8.030230999E-1,7.183590531E-1,1.077447215E0
2.458618409E2,2.125123143E-1,5.350931287E-1,4.034834504E-1,7.030540768E-1
2.460621829E2,-1.629060507E-1,3.641153872E-1,1.767679900E-1,4.363087426E-1
2.462625259E2,3.887535632E-1,5.485962033E-1,-1.838150144E0,1.957264182E0
2.464628679E2,-5.492291600E-2,-1.712297201E-1,-1.755980402E-1,2.513380502E-1
2.466632109E2,-5.512356758E-1,-2.619370818E-1,8.460713550E-3,6.103633252E-1
2.468635531E2,7.747513056E-1,-2.709599435E-1,1.626433730E-1,8.367268033E-1
2.470638951E2,-3.072747588E-1,7.616254687E-1,3.728357255E-1,9.019410237E-1
2.472642371E2,-2.170189172E-1,1.690569520E-1,-7.503256202E-1,7.991658149E-1
2.474645801E2,1.383864760E0,2.839935422E-1,5.992566347E-1,1.534549615E0
2.476649221E2,6.972610950E-2,-5.941651464E-1,-6.057243943E-1,8.513495130E-1
2.478652639E2,3.171268404E-1,-1.843951643E-1,3.273734450E-1,4.916750777E-1
2.480656059E2,2.869515717E-1,-4.417534471E-1,-2.501474619E-1,5.831475501E-1
2.482659479E2,-3.355807960E-1,-1.556984335E-1,3.488509953E-1,5.084815530E-1
2.484662899E2,-4.013798535E-1,-8.044533730E-1,-2.520558834E-1,9.336933032E-1
2.486666329E2,-2.446692139E-1,2.768748067E-2,-8.362354636E-1,8.717335438E-1
2.488669752E2,-7.665398121E-1,4.458610117E-1,5.648384243E-2,8.885751233E-1
2.490673172E2,2.207401544E-1,7.555956393E-2,3.879352510E-1,4.526910894E-1
2.492676592E2,-3.863558471E-1,3.357200325E-1,4.770976305E-1,6.997148918E-1
2.494680012E2,-1.208971292E-1,-4.802867174E-1,1.858237088E-1,5.289819444E-1
2.496683422E2,6.586790681E-1,2.269126475E-1,2.954026461E-1,7.567101081E-1
2.498686839E2,-3.288032711E-1,-1.259161681E-1,-2.657267451E-1,4.411090291E-1
2.500690259E2,-4.299994931E-2,-2.175356895E-1,3.386930376E-2,2.243165210E-1
2.502693679E2,-1.415715963E-1,4.230469167E-1,1.053484559E0,1.144045859E0
2.504697099E2,-1.627766937E-1,7.319761813E-2,7.200231552E-1,7.418136473E-1
2.506700509E2,-2.294789553E-1,-5.642455816E-1,-3.263200521E-1,6.910270933E-1
2.508703931E2,-3.790382743E-1,1.749238744E-2,-1.022140384E0,1.090296731E0
2.510707351E2,-3.706749082E-1,3.296162561E-2,-4.396665692E-1,5.760147988E-1
2.512710771E2,1.132854700E0,-3.384492695E-1,-4.947675020E-2,1.183366227E0
2.514714181E2,2.041183598E-2,5.047578216E-1,5.394265056E-1,7.390386028E-1
2.516717601E2,2.658074200E-1,8.601480126E-1,-5.111287832E-1,1.035258818E0
2.518721016E2,1.170789480E0,1.518961191E-1,3.162269294E-1,1.222219256E0
2.520724436E2,1.717470884E-1,-2.493607849E-1,-1.687075645E-1,3.466123277E-1
2.522727846E2,8.256127834E-1,2.855793238E-1,8.640905023E-1,1.228757264E0
2.524731266E2,-5.363096595E-1,5.372563004E-1,7.622137070E-1,1.075751885E0
2.526734676E2,-4.132413864E-1,1.054909974E-1,2.171762139E-1,4.786045360E-1
2.528738086E2,1.069160253E-1,9.273552150E-2,3.153790906E-2,1.450019073E-1
2.530741506E2,-8.904194832E-1,-3.562093377E-1,-1.353770018E0,1.659043462E0
2.532744916E2,-2.211268246E-1,-2.411291003E-1,5.942306295E-2,3.325228052E-1
2.534748326E2,4.155918360E-1,-1.088904664E-1,2.966638505E-1,5.220949607E-1
2.536751746E2,2.540706396E-1,6.567520499E-1,7.726184130E-1,1.045377615E0
2.538755151E2,-4.366474152E-1,-6.525639296E-1,-3.185293674E-1,8.473261505E-1
2.540758561E2,1.120240450E0,6.285146475E-1,-8.738198318E-3,1.284541040E0
2.542761971E2,-1.436401606E-1,-1.629605293E-1,-3.837490678E-1,4.409670927E-1
2.544765381E2,1.637888998E-1,2.416768223E-1,-6.270475686E-2,2.986073955E-1
2.546768791E2,-4.286621213E-1,2.152492702E-1,7.282577753E-1,8.720337435E-1
2.548772207E2,3.278310299E-1,-7.153975964E-2,1.542794704E-1,3.693146035E-1
2.550775617E2,-1.265539080E-1,-6.633258462E-1,-3.553707302E-1,7.630893956E-1
2.552779027E2,1.695150286E-1,1.668255404E-2,-2.297776490E-1,2.860269577E-1
2.554782437E2,-2.584730685E-1,3.433862627E-1,-2.877261937E-1,5.172125434E-1
2.556785847E2,1.135721803E0,-1.244998053E-1,2.873608172E-1,1.178108846E0
2.558789256E2,-7.616084814E-2,5.879092813E-1,1.987156123E-1,6.252405076E-1
2.560792666E2,-1.346419305E-1,2.197500765E-1,-1.036650091E-1,2.777858522E-1
2.562796066E2,4.363558888E-1,2.483991534E-1,-5.561270714E-1,7.492569123E-1
2.564799476E2,2.704052925E-1,-4.948389232E-1,-1.665044427E-1,5.879696519E-1
2.566802886E2,4.294757172E-2,-2.111204863E-1,5.169521570E-1,5.600498962E-1
2.568806288E2,1.644679785E0,-1.172580838E0,8.869754672E-1,2.206046893E0
2.570809688E2,-1.227370575E-1,1.560165286E0,9.538109899E-1,1.832739891E0
2.572813098E2,-5.681310967E-2,-3.471063673E-1,1.013075486E-1,3.660242876E-1
2.574816498E2,1.635791063E0,3.444284499E-1,5.097323060E-1,1.747647099E0
2.576819908E2,3.354582787E-1,-2.825621516E-2,-3.216876686E-1,4.656325016E-1
2.578823324E2,-6.943773627E-1,8.235881925E-1,3.640672266E-1,1.137102624E0